AccX,AccY,AccZ,Magnitude,GyroX,GyroY,GyroZ,Temperature,Altitude
-0.1602568359375,0.0293232421875,0.9348681640625,0.94895763349829,-0.115234375,-1.1318359375,0.84130859375,42.13,504.5287563079284
-0.1558623046875,0.0552021484375,0.9783251953125,0.992199840252888,-0.09521484375,-0.95556640625,1.04248046875,42.31823529411765,504.5287563079284
-0.1597685546875,0.0781513671875,1.0056689453125005,1.0212755038804,-0.0966796875,-0.77197265625,1.31396484375,42.27117647058824,504.5287563079284
-0.1705107421875,0.1084248046875,1.0286181640625005,1.048277243343651,-0.06298828125,-0.59228515625,1.58056640625,42.224117647058826,504.5287563079284
-0.2037138671875,0.1469990234375,1.0261767578125005,1.0564784857490663,0.01025390625,-0.43212890625,1.7529296875,42.41235294117647,504.6215048111193
-0.2549833984375,0.1684833984375,1.0432666015625005,1.0871101098617173,0.1044921875,-0.1923828125,1.74951171875,42.31823529411765,504.6215048111193
-0.2940458984375,0.1655537109375,1.0798876953125005,1.131383425758234,0.23291015625,0.296875,1.609375,42.224117647058826,504.6215048111193
-0.3228544921875,0.1479755859375,1.1140673828125005,1.169306602481098,0.32275390625,0.771484375,1.578125,41.98882352941177,504.6215048111193
-0.3414091796875,0.1294208984375,1.1365283203125005,1.1937364113570528,0.4296875,1.19873046875,1.5341796875,42.31823529411765,504.911125179189
-0.3526396484375,0.1069599609375,1.1609423828125005,1.2180239616297543,0.55810546875,1.6103515625,1.3232421875,42.31823529411765,504.911125179189
-0.3550810546875,0.0771748046875,1.2151416015625005,1.2683089598849404,0.64306640625,2.03955078125,0.9423828125,42.224117647058826,504.911125179189
-0.3360380859375,0.0644794921875,1.3079150390625005,1.3519323021213592,0.75341796875,2.34326171875,0.74658203125,42.224117647058826,504.911125179189
-0.2901396484375,0.0420185546875,1.3518603515625005,1.383283407209148,0.80029296875,2.3955078125,0.43603515625,42.224117647058826,504.911125179189
-0.2603544921875,0.0117451171875,1.3206103515625005,1.3460810191195736,0.8154296875,2.287109375,0.29931640625,41.98882352941177,504.346416075163
-0.2647490234375,-0.0024150390624999,1.2986376953125005,1.3253519311908617,0.8076171875,2.35693359375,0.23828125,42.31823529411765,504.346416075163
-0.1788115234375,0.0205341796875,1.2986376953125005,1.3110511344474862,0.79296875,2.32666015625,0.1357421875,41.98882352941177,504.346416075163
-0.0645537109375,0.0259052734375,1.2805712890625005,1.282459001745813,0.74169921875,2.09033203125,-0.06640625,42.224117647058826,504.346416075163
0.0091767578125,-0.0058330078124999,1.2517626953125005,1.2518099225681611,0.7080078125,2.0107421875,-0.2412109375,42.27117647058824,504.6360384875056
0.1117158203125,-0.0458720703125,1.2712939453125005,1.2770172147356011,0.685546875,1.90673828125,-0.533203125,42.224117647058826,504.6360384875056
0.1517548828125,-0.1176494140625,1.2922900390625005,1.30647788888555,0.6171875,1.59814453125,-0.7587890625,42.31823529411765,504.6360384875056
0.1356416015625,-0.1913798828125,1.2942431640625005,1.3153289593642643,0.50927734375,1.201171875,-0.7900390625,42.08294117647059,504.6360384875056
0.1209931640625,-0.2280009765625,1.3245166015625005,1.3494324802960629,0.34619140625,0.609375,-0.93408203125,42.13,504.6360384875056
0.2396455078125,-0.2719462890625,1.3167041015625005,1.365684606569572,0.09326171875,-0.044921875,-1.33251953125,42.224117647058826,505.3257399035171
0.0824189453125,-0.2958720703125,1.3186572265625005,1.353953487274557,-0.20458984375,-0.63525390625,-1.646484375,42.13,505.3257399035171
0.0311494140625,-0.2480205078125,1.3367236328125005,1.3598950433071868,-0.42431640625,-1.12890625,-1.43212890625,41.94176470588236,505.3257399035171
-0.0445341796875,-0.1601298828125,1.3440478515625005,1.3542856049666023,-0.60009765625,-1.140625,-0.8701171875,42.31823529411765,505.3257399035171
-0.1065458984375,-0.0947001953125,1.3254931640625005,1.333136258393154,-0.544921875,-0.80859375,-0.080078125,42.31823529411765,504.9247379833921
-0.1622099609375,-0.0785869140625,1.2922900390625005,1.304799417362443,-0.49560546875,-0.4736328125,0.4365234375,42.224117647058826,504.9247379833921
-0.2007841796875,-0.0600322265625,1.2449267578125005,1.2624423897177952,-0.47900390625,-0.20556640625,0.8349609375,42.224117647058826,504.9247379833921
-0.2037138671875,-0.0356181640625,1.1819384765625005,1.199894393550763,-0.40380859375,-0.185546875,1.11669921875,42.224117647058826,504.9247379833921
-0.1866240234375,0.0005146484375,1.1096728515625005,1.125256694484359,-0.2919921875,-0.1787109375,1.3046875,42.224117647058826,504.9247379833921
-0.1548857421875,0.0317646484375,1.0227587890625005,1.034907786533623,-0.14306640625,-0.26220703125,1.44384765625,42.13,504.73892364497794
-0.1309599609375,0.0395771484375,0.9348681640625,0.9448255639136702,0.0107421875,-0.30029296875,1.587890625,42.08294117647059,504.73892364497794
-0.1089873046875,0.0493427734375,0.8660205078125001,0.8742450810987562,0.1689453125,-0.29931640625,1.62744140625,41.94176470588236,504.73892364497794
-0.1089873046875,0.0561787109375,0.7976611328125001,0.807030088005005,0.220703125,-0.150390625,1.55517578125,42.41235294117647,504.73892364497794
-0.1128935546875,0.0571552734375,0.7385791015625001,0.7493402226202492,0.24658203125,-0.0390625,1.34326171875,42.224117647058826,505.0433701606153
-0.1016630859375,0.0415302734375,0.6951220703125001,0.7037434470669445,0.28955078125,0.11767578125,0.830078125,41.98882352941177,505.0433701606153
-0.0987333984375,0.0278583984375,0.6541064453125001,0.6621024211780797,0.35400390625,0.15869140625,0.5361328125,42.224117647058826,505.0433701606153
-0.1001982421875,0.0034443359375,0.6262744140625001,0.634248526129027,0.39111328125,0.134765625,0.33203125,42.224117647058826,505.0433701606153
-0.0948271484375,-0.0219462890625,0.6111376953125001,0.6188401330846898,0.375,0.0849609375,0.11376953125,42.27117647058824,505.0433701606153
-0.0948271484375,-0.0405009765625,0.6082080078125001,0.6168869409791019,0.39990234375,0.00732421875,-0.150390625,41.80058823529412,505.2475174311005
-0.0909208984375,-0.0405009765625,0.6101611328125001,0.6182261292360844,0.34326171875,-0.07568359375,-0.48046875,42.224117647058826,505.2475174311005
-0.1011748046875,-0.0536845703125,0.6150439453125001,0.6256176379057395,0.2783203125,-0.1513671875,-0.78076171875,42.08294117647059,505.2475174311005
-0.1114287109375,-0.0439189453125,0.6262744140625001,0.6376243981278344,0.236328125,-0.1767578125,-0.9970703125,42.224117647058826,505.2475174311005
-0.1177763671875,-0.0341533203125,0.6443408203125001,0.655906102027751,0.2041015625,-0.16552734375,-1.12353515625,41.98882352941177,505.2244995763404
-0.1368193359375,-0.0243876953125,0.6589892578125001,0.6734843222238388,0.19775390625,-0.13720703125,-1.30908203125,41.98882352941177,505.2244995763404
-0.1636748046875,-0.0175517578125,0.6902392578125001,0.709596884799638,0.2119140625,-0.10888671875,-1.4130859375,42.224117647058826,505.2244995763404
-0.1910185546875,-0.0268291015625,0.7102587890625001,0.7359860300074189,0.2314453125,-0.02197265625,-1.376953125,42.31823529411765,505.2244995763404
-0.2085966796875,-0.0229228515625,0.7293017578125001,0.758893329690549,0.24853515625,0.04541015625,-1.3447265625,42.08294117647059,505.2244995763404
-0.2178740234375,-0.0322001953125,0.7473681640625001,0.779143834809183,0.279296875,0.12109375,-1.22119140625,42.224117647058826,504.69382260056375
-0.2154326171875,-0.0302470703125,0.7756884765625001,0.8056169750462049,0.279296875,0.2021484375,-1.1708984375,42.13,504.69382260056375
-0.2076201171875,-0.0238994140625,0.7942431640625001,0.8212791843907243,0.28857421875,0.2978515625,-1.23388671875,42.224117647058826,504.69382260056375
-0.2144560546875,-0.0278056640625,0.8103564453125001,0.8387145657526137,0.296875,0.443359375,-1.24951171875,42.08294117647059,504.69382260056375
-0.2168974609375,-0.0302470703125,0.8323291015625001,0.8606573808034543,0.3212890625,0.59228515625,-1.30908203125,42.31823529411765,504.67549759061984
-0.2022490234375,-0.0346416015625,0.8674853515625001,0.8914233243615245,0.31787109375,0.73486328125,-1.45166015625,42.13,504.67549759061984
-0.1822294921875,-0.0375712890625,0.9080126953125,0.9268798435792004,0.3427734375,0.77001953125,-1.60595703125,41.98882352941177,504.67549759061984
-0.1617216796875,-0.0341533203125,0.9460986328125,0.9604285366329952,0.361328125,0.7841796875,-1.7822265625,42.224117647058826,504.67549759061984
-0.1592802734375,-0.0492900390625,0.9773486328125,0.9914686397045398,0.361328125,0.66796875,-1.9384765625,42.27117647058824,504.67549759061984
-0.1749052734375,-0.0805400390625,1.0120166015625005,1.0301728759807978,0.36865234375,0.62744140625,-2.05322265625,41.89470588235295,504.76923034936647
-0.1929716796875,-0.1161845703125,1.0676806640625005,1.091182351375359,0.29248046875,0.59375,-2.115234375,42.27117647058824,504.76923034936647
-0.2125029296875,-0.1181376953125,1.1414111328125005,1.1670190162494505,0.24462890625,0.73974609375,-2.2353515625,42.27117647058824,504.76923034936647
-0.2198271484375,-0.1049541015625,1.1609423828125005,1.186223652957283,0.1357421875,0.92333984375,-2.3203125,42.224117647058826,504.76923034936647
-0.1431669921875,-0.1044658203125,1.1409228515625005,1.154605927787956,-0.03125,1.2119140625,-2.23876953125,42.31823529411765,504.478644464099
-0.3584990234375,-0.0824931640625,1.2034228515625005,1.258393114883224,-0.15234375,1.619140625,-1.88720703125,42.31823529411765,504.478644464099
-0.3897490234375,-0.0649150390625,1.3137744140625005,1.3719043241466355,-0.18896484375,1.91259765625,-1.79052734375,42.08294117647059,504.478644464099
-0.3638701171875,-0.0302470703125,1.4421923828125005,1.4876945978549938,-0.21923828125,2.03662109375,-2.05615234375,41.94176470588236,504.478644464099
-0.2959990234375,0.0024677734375,1.4959033203125005,1.5249092614000532,-0.34716796875,1.8681640625,-2.47705078125,42.13,504.478644464099
-0.2476591796875,0.0200458984375,1.4636767578125005,1.4846166369430744,-0.43798828125,1.61376953125,-2.6337890625,42.224117647058826,504.20826971396406
-0.2398466796875,0.0141865234375,1.4094775390625005,1.429809295090098,-0.44140625,1.52197265625,-2.4169921875,42.31823529411765,504.20826971396406
-0.2266630859375,0.0302998046875,1.3826220703125005,1.40140573068831,-0.37255859375,1.72412109375,-1.85693359375,42.224117647058826,504.20826971396406
-0.1861357421875,0.0752216796875,1.3499072265625005,1.3647543133987017,-0.20166015625,2.02783203125,-1.23681640625,42.224117647058826,504.20826971396406
-0.0635771484375,0.1162373046875,1.3054736328125005,1.312179321119307,-0.00244140625,2.02880859375,-0.4560546875,42.08294117647059,504.2918944149808
0.1307587890625,0.1440693359375,1.2932666015625005,1.30781968833306,0.1025390625,1.748046875,-0.1533203125,42.27117647058824,504.2918944149808
0.1512666015625,0.1460224609375,1.3025439453125005,1.3194032262037128,0.265625,0.96533203125,-0.541015625,42.224117647058826,504.2918944149808
0.0189423828125,0.1460224609375,1.2605517578125005,1.2691225737055674,0.3974609375,0.484375,-0.98095703125,41.98882352941177,504.2918944149808
-0.0801787109375,0.1572529296875,1.2395556640625005,1.252060443386152,0.455078125,0.18115234375,-1.064453125,42.31823529411765,504.2918944149808
-0.0904326171875,0.1684833984375,1.2781298828125005,1.292354715679378,0.51416015625,-0.1171875,-1.08349609375,42.27117647058824,504.5521723738315
-0.0738310546875,0.1543232421875,1.2854541015625005,1.2967879298248366,0.5771484375,-0.42333984375,-1.1669921875,42.41235294117647,504.5521723738315
-0.0757841796875,0.0947529296875,1.2932666015625005,1.2989456733413798,0.60888671875,-0.5595703125,-1.31494140625,41.98882352941177,504.5521723738315
-0.0938505859375,0.0058857421875,1.2810595703125005,1.28450620750978,0.59423828125,-0.56005859375,-1.369140625,42.224117647058826,504.5521723738315
-0.1075224609375,-0.0629619140625,1.2434619140625005,1.2496890869142,0.4541015625,-0.4921875,-1.28564453125,41.98882352941177,504.9310885692665
-0.1192412109375,-0.0937236328125,1.3352587890625005,1.3438447155464313,0.34423828125,-0.43017578125,-1.28759765625,41.94176470588236,504.9310885692665
-0.0875029296875,-0.1147197265625,1.1697314453125005,1.1785962126696916,0.16455078125,-0.416015625,-1.34326171875,42.224117647058826,504.9310885692665
-0.0523466796875,-0.1010478515625,1.1086962890625005,1.1145215585894523,0.0048828125,-0.474609375,-1.55078125,42.31823529411765,504.9310885692665
-0.0591826171875,-0.1244853515625,1.0315478515625005,1.0407161740811044,-0.03173828125,-0.60546875,-1.529296875,42.224117647058826,504.9310885692665
-0.0889677734375,-0.1059306640625,0.9656298828125,0.9754884114532736,-0.11279296875,-0.50244140625,-1.30810546875,42.224117647058826,505.0598283799485
-0.1382841796875,-0.1020244140625,0.8928759765625001,0.909262890994172,-0.13134765625,-0.59130859375,-0.90869140625,42.224117647058826,505.0598283799485
-0.1685576171875,-0.0766337890625,0.8240283203125001,0.8445750887961613,-0.1787109375,-0.43701171875,-0.58056640625,42.31823529411765,505.0598283799485
-0.1866240234375,-0.0463603515625,0.7542041015625001,0.7783325993010296,-0.20068359375,-0.3203125,-0.29052734375,42.224117647058826,505.0598283799485
-0.1788115234375,-0.0278056640625,0.6917041015625001,0.7149834123854774,-0.17724609375,-0.24462890625,-0.07666015625,42.224117647058826,504.7029874275236
-0.1685576171875,-0.0087626953124999,0.6267626953125001,0.6490916201711876,-0.1630859375,-0.3095703125,0.1005859375,42.27117647058824,504.7029874275236
-0.1573271484375,0.0014912109375,0.5837939453125001,0.6046233752751126,-0.162109375,-0.3251953125,0.22607421875,42.224117647058826,504.7029874275236
-0.1460966796875,0.0136982421875,0.5520556640625001,0.5712244198896151,-0.1474609375,-0.35302734375,0.35107421875,42.224117647058826,504.7029874275236
-0.1397490234375,0.0215107421875,0.5217822265625001,0.540600770937031,-0.11181640625,-0.40380859375,0.41259765625,42.224117647058826,504.7029874275236
-0.1167998046875,0.0268818359375,0.5051806640625001,0.5192035543224232,-0.03662109375,-0.5166015625,0.4375,42.224117647058826,504.8326613020496
-0.1094755859375,0.0219990234375,0.5042041015625001,0.5164209881298498,0.04443359375,-0.71435546875,0.42626953125,42.224117647058826,504.8326613020496
-0.1158232421875,0.0176044921875,0.5427783203125001,0.555277630179051,0.166015625,-0.7197265625,0.4384765625,42.27117647058824,504.8326613020496
-0.1177763671875,0.0112568359375,0.5793994140625001,0.5913557897232232,0.28466796875,-0.5634765625,0.46826171875,42.31823529411765,504.8326613020496
-0.1275419921875,0.0024677734375,0.5950244140625001,0.6085450706458123,0.36669921875,-0.47216796875,0.5556640625,42.45941176470589,504.8326613020496
-0.1255888671875,-0.0053447265624999,0.6194384765625001,0.6320642023636035,0.4072265625,-0.56005859375,0.583984375,42.27117647058824,505.3523074069618
-0.1504912109375,-0.0331767578125,0.6721728515625001,0.6896119519019716,0.4013671875,-0.6689453125,0.58837890625,42.27117647058824,505.3523074069618
-0.1695341796875,-0.0478251953125,0.7459033203125001,0.7664208051992093,0.4013671875,-0.69580078125,0.64892578125,42.08294117647059,505.3523074069618
-0.1666044921875,-0.0439189453125,0.8079150390625001,0.8260827082791276,0.33837890625,-0.76123046875,0.56982421875,42.08294117647059,505.3523074069618
-0.1490263671875,-0.0507548828125,0.8547900390625001,0.8691668005204091,0.21044921875,-0.83740234375,0.48193359375,42.31823529411765,504.4133404043845
-0.1231474609375,-0.0400126953125,0.8909228515625001,0.9002832000863843,0.06201171875,-0.88037109375,0.38525390625,41.94176470588236,504.4133404043845
-0.1255888671875,-0.0273173828125,0.9070361328125,0.916096801212961,-0.05078125,-0.82763671875,0.408203125,42.224117647058826,504.4133404043845
-0.1421904296875,-0.0038798828124999,0.9241259765625,0.9350090867702564,-0.11328125,-0.7060546875,0.5322265625,42.08294117647059,504.4133404043845
-0.1817412109375,0.0053974609375,0.9392626953125,0.9566992271049992,-0.193359375,-0.513671875,0.673828125,42.13,504.4133404043845
-0.2027373046875,0.0151630859375,0.9719775390625,0.9930119185231836,-0.22705078125,-0.3447265625,0.9287109375,42.41235294117647,504.346157747295
-0.1905302734375,0.0322529296875,0.9983447265625,1.0168747364472914,-0.2568359375,-0.28662109375,1.15185546875,41.98882352941177,504.346157747295
-0.1856474609375,0.0576435546875,1.0217822265625005,1.040108973939064,-0.21630859375,-0.3447265625,1.37109375,42.224117647058826,504.346157747295
-0.2022490234375,-0.0312236328125,1.0212939453125005,1.0415953655135974,-0.1435546875,-0.443359375,1.59130859375,42.13,504.346157747295
-0.2125029296875,0.1352802734375,0.9998095703125,1.031056460333556,-0.021484375,-0.4833984375,1.79736328125,42.31823529411765,504.4748892457668
-0.2442412109375,0.1762958984375,1.0203173828125005,1.0638522334400826,0.13134765625,-0.3046875,1.98486328125,42.08294117647059,504.4748892457668
-0.2984404296875,0.1899677734375,1.0652392578125005,1.122447825692485,0.30029296875,0.08056640625,2.20361328125,42.224117647058826,504.4748892457668
-0.3360380859375,0.1826435546875,1.0886767578125005,1.1539052587931826,0.45458984375,0.4912109375,2.3994140625,42.224117647058826,504.4748892457668
-0.3575224609375,0.1655537109375,1.1243212890625005,1.1913558252340677,0.6513671875,1.02734375,2.18310546875,42.224117647058826,504.4748892457668
-0.3887724609375,0.1162373046875,1.1643603515625005,1.2330410235167215,0.7431640625,1.5126953125,1.8671875,42.224117647058826,504.0013206323592
-0.4107451171875,0.0820576171875,1.2625048828125005,1.3301742678902146,0.8525390625,1.90234375,1.31298828125,42.08294117647059,504.0013206323592
-0.3790068359375,0.0088154296875,1.3235400390625005,1.376765095609812,0.92041015625,2.14794921875,1.38916015625,42.13,504.0013206323592
-0.2667021484375,-0.0116923828124999,1.3621142578125005,1.3880280973860402,0.90283203125,2.154296875,1.20849609375,42.27117647058824,504.0013206323592
-0.1910185546875,-0.0238994140625,1.3582080078125005,1.371782877394755,0.87841796875,2.00390625,0.83251953125,42.41235294117647,503.85967553638153
-0.1993193359375,-0.0121806640624999,1.3669970703125005,1.3815055398001588,0.85009765625,2.11669921875,0.6953125,42.224117647058826,503.85967553638153
-0.1475615234375,0.0346943359375,1.3850634765625005,1.3933337483362482,0.8037109375,2.09375,0.70361328125,42.41235294117647,503.85967553638153
-0.1119169921875,0.0659443359375,1.3284228515625005,1.3347589074945256,0.716796875,1.91259765625,0.66064453125,42.224117647058826,503.85967553638153
-0.0743193359375,0.0654560546875,1.3220751953125005,1.3257792730503934,0.70458984375,1.7744140625,0.4375,42.224117647058826,503.85967553638153
0.0101533203125,0.0205341796875,1.2957080078125005,1.2959104845467704,0.64794921875,1.63232421875,0.26611328125,42.27117647058824,504.2045099460593
-0.0059599609375,-0.0497783203125,1.2019580078125005,1.2030030984382811,0.578125,1.4453125,0.12353515625,42.224117647058826,504.2045099460593
0.1493134765625,-0.0951884765625,1.1707080078125005,1.184023901747673,0.6240234375,1.21435546875,-0.099609375,42.224117647058826,504.2045099460593
0.1180634765625,-0.1532939453125,1.2127001953125005,1.228038998516933,0.3779296875,0.83740234375,-0.54541015625,42.41235294117647,504.2045099460593
0.0682587890625,-0.2314189453125,1.1921923828125005,1.2163620629442435,0.17529296875,0.2783203125,-1.06591796875,41.98882352941177,504.6045610767874
0.0008759765625,-0.2743876953125,1.1892626953125005,1.220506097131758,-0.068359375,-0.1396484375,-1.3720703125,42.224117647058826,504.6045610767874
-0.0699248046875,-0.2914775390625,1.1990283203125005,1.2359278081667764,-0.2470703125,-0.43115234375,-1.1806640625,42.41235294117647,504.6045610767874
-0.1148466796875,-0.2538798828125,1.2175830078125005,1.2490609014959466,-0.369140625,-0.70166015625,-0.74072265625,42.224117647058826,504.6045610767874
-0.1207060546875,-0.2016337890625,1.1995166015625005,1.2223200129074103,-0.4619140625,-0.73291015625,0.22607421875,42.224117647058826,504.6045610767874
-0.1011748046875,-0.1410869140625,1.1834033203125005,1.196070765862072,-0.4580078125,-0.46435546875,0.5419921875,42.224117647058826,504.5714399953631
-0.1187529296875,-0.1069072265625,1.1838916015625005,1.1946257730565133,-0.45068359375,-0.16357421875,0.63134765625,42.08294117647059,504.5714399953631
-0.1373076171875,-0.0546611328125,1.1511767578125005,1.1606244650642836,-0.45166015625,-0.03662109375,0.70166015625,42.08294117647059,504.5714399953631
-0.1314482421875,-0.0068095703124999,1.0950244140625005,1.102906831067315,-0.40234375,-0.134765625,0.8330078125,41.94176470588236,504.5714399953631
-0.1182646484375,0.0395771484375,1.0325244140625005,1.0400286262327585,-0.302734375,-0.26953125,1.02880859375,42.224117647058826,504.58154337109215
-0.1089873046875,0.0581318359375,0.9714892578125,0.9793104313636164,-0.15771484375,-0.373046875,1.31640625,42.31823529411765,504.58154337109215
-0.0953154296875,0.0639912109375,0.9216845703125,0.9288069516136808,-0.01708984375,-0.44140625,1.611328125,42.224117647058826,504.58154337109215
-0.0777373046875,0.0503193359375,0.8733447265625001,0.8782403631829935,0.11279296875,-0.53076171875,1.7958984375,42.08294117647059,504.58154337109215
-0.0640654296875,0.0386005859375,0.8298876953125001,0.8332514454514047,0.17529296875,-0.5771484375,1.7216796875,41.98882352941177,504.58154337109215
-0.0533232421875,0.0176044921875,0.8001025390625001,0.8020706697771874,0.2255859375,-0.6171875,1.4150390625,42.41235294117647,504.8960945535171
-0.0718779296875,-0.0131572265624999,0.7737353515625001,0.7771781929805568,0.216796875,-0.64111328125,1.05859375,42.31823529411765,504.8960945535171
-0.0987333984375,-0.0405009765625,0.7488330078125001,0.7563990260828276,0.19287109375,-0.609375,0.74169921875,42.08294117647059,504.8960945535171
-0.1026396484375,-0.0463603515625,0.7151416015625001,0.7239555855946895,0.18603515625,-0.65234375,0.48779296875,42.31823529411765,504.8960945535171
-0.1182646484375,-0.0522197265625,0.7083056640625001,0.7200071809748336,0.21337890625,-0.73486328125,0.27685546875,42.224117647058826,504.9503604281084
-0.1314482421875,-0.0326884765625,0.7127001953125001,0.7254576109412848,0.15087890625,-0.65380859375,-0.04931640625,42.27117647058824,504.9503604281084
-0.1407255859375,-0.0375712890625,0.7083056640625001,0.7231266874084304,0.12548828125,-0.580078125,-0.12255859375,42.31823529411765,504.9503604281084
-0.1407255859375,-0.0409892578125,0.7268603515625001,0.7414915916360978,0.12060546875,-0.517578125,-0.265625,42.224117647058826,504.9503604281084
-0.1646513671875,-0.0317119140625,0.7288134765625001,0.7478534628049389,0.14404296875,-0.39404296875,-0.36328125,42.13,504.9503604281084
-0.1622099609375,-0.0253642578125,0.7478564453125001,0.7656661673321948,0.14404296875,-0.2451171875,-0.44580078125,42.224117647058826,504.7535067453947
-0.1617216796875,-0.0131572265624999,0.7546923828125001,0.771937566754574,0.1376953125,-0.0888671875,-0.623046875,42.41235294117647,504.7535067453947
-0.1661162109375,-0.0141337890624999,0.7708056640625001,0.7886290200597027,0.1650390625,0.0771484375,-0.68212890625,42.13,504.7535067453947
-0.2046904296875,-0.0102275390624999,0.8025439453125001,0.828299196376938,0.18603515625,0.10595703125,-0.69091796875,42.224117647058826,504.7535067453947
-0.2115263671875,-0.0151103515624999,0.8142626953125001,0.8414246631264506,0.203125,0.05078125,-0.62255859375,42.224117647058826,504.5070726265117
-0.1880888671875,-0.0248759765625,0.8181689453125001,0.8398789551141187,0.21533203125,-0.04541015625,-0.7119140625,42.224117647058826,504.5070726265117
-0.1827177734375,-0.0346416015625,0.8318408203125001,0.8523760764046265,0.18408203125,-0.1357421875,-0.791015625,42.224117647058826,504.5070726265117
-0.1807646484375,-0.0444072265625,0.7131884765625001,0.737079142967189,0.17724609375,-0.17822265625,-0.84326171875,42.08294117647059,504.5070726265117
-0.1749052734375,-0.0439189453125,0.8254931640625001,0.8449613555349893,0.20068359375,-0.22509765625,-0.8330078125,42.31823529411765,504.5070726265117
-0.1890654296875,-0.0439189453125,0.8127978515625001,0.8356524145629552,0.2021484375,-0.18896484375,-0.80810546875,42.224117647058826,504.3193881986703
-0.2056669921875,-0.0488017578125,0.8186572265625001,0.8455058709695916,0.21875,-0.03466796875,-0.79052734375,42.08294117647059,504.3193881986703
-0.2076201171875,-0.0492900390625,0.8469775390625001,0.8734452316476992,0.25537109375,0.09814453125,-0.85498046875,42.27117647058824,504.3193881986703
-0.1915068359375,-0.0488017578125,0.8777392578125001,0.8997125565877254,0.2880859375,0.20458984375,-1.005859375,42.224117647058826,504.3193881986703
-0.1773466796875,-0.0429423828125,0.8958056640625001,0.9142011161687852,0.30810546875,0.2783203125,-1.197265625,42.31823529411765,504.12628895942544
-0.1739287109375,-0.0409892578125,0.9153369140625,0.93261620294195,0.3330078125,0.30810546875,-1.3544921875,42.13,504.12628895942544
-0.1832060546875,-0.0409892578125,0.9539111328125,0.972209353500472,0.32763671875,0.279296875,-1.4638671875,42.31823529411765,504.12628895942544
-0.1851591796875,-0.0644267578125,0.9895556640625,1.0087889478096763,0.3056640625,0.32666015625,-1.56298828125,42.08294117647059,504.12628895942544
-0.1802763671875,-0.0922587890625,1.0413134765625005,1.0608227982072604,0.2470703125,0.4482421875,-1.64794921875,42.224117647058826,504.12628895942544
-0.1802763671875,-0.1010478515625,1.0989306640625005,1.1181944559371448,0.18896484375,0.525390625,-1.73291015625,42.224117647058826,504.4840545878298
-0.2037138671875,-0.1025126953125,1.1335986328125005,1.156310534717681,0.0771484375,0.67724609375,-1.78564453125,42.13,504.4840545878298
-0.2598662109375,-0.0805400390625,1.1804736328125005,1.2114186490411742,-0.0361328125,0.9267578125,-1.77392578125,42.224117647058826,504.4840545878298
-0.2784208984375,-0.0488017578125,1.2839892578125005,1.3147350388691366,-0.083984375,1.17236328125,-1.671875,42.224117647058826,504.4840545878298
-0.2525419921875,-0.0326884765625,1.3821337890625005,1.4053966718283748,-0.16015625,1.27490234375,-1.60888671875,42.41235294117647,503.93131840745593
-0.2085966796875,0.0136982421875,1.4587939453125005,1.473696030901925,-0.24658203125,1.1162109375,-1.6552734375,42.31823529411765,503.93131840745593
-0.2002958984375,0.0400654296875,1.4465869140625005,1.4609371600188,-0.34423828125,0.88330078125,-1.73095703125,42.13,503.93131840745593
-0.2085966796875,0.0244404296875,1.3616259765625005,1.3777282785185698,-0.3857421875,0.80908203125,-1.6689453125,42.224117647058826,503.93131840745593
-0.2007841796875,0.0307880859375,1.3167041015625005,1.3322807077038938,-0.3154296875,0.97265625,-1.318359375,42.31823529411765,503.93131840745593
-0.1094755859375,0.0649677734375,1.3020556640625005,1.3082639901101856,-0.158203125,1.0908203125,-0.71044921875,42.08294117647059,504.08400479062726
0.0033173828125,0.0952412109375,1.3167041015625005,1.3201483190767154,-0.03369140625,1.25244140625,-0.22705078125,42.27117647058824,504.08400479062726
0.0833955078125,0.1196552734375,1.3425830078125005,1.3504818873467233,0.0859375,1.2421875,0.0078125,42.31823529411765,504.08400479062726
0.0755830078125,0.1323505859375,1.3127978515625005,1.3216155521690491,0.2099609375,0.99365234375,0.09814453125,42.224117647058826,504.08400479062726
0.0409150390625,0.1245380859375,1.2776416015625005,1.28434879893028,0.3056640625,0.7451171875,0.07666015625,42.31823529411765,504.494157958748
0.0179658203125,0.1411396484375,1.2737353515625005,1.2816570980104656,0.42919921875,0.2509765625,-0.06591796875,42.31823529411765,504.494157958748
0.0023408203125,0.1596943359375,1.2849658203125005,1.2948532425497614,0.53125,-0.00146484375,-0.4541015625,42.27117647058824,504.494157958748
-0.0293974609375,0.1523701171875,1.3030322265625005,1.3122400111190526,0.53662109375,-0.13232421875,-0.9072265625,42.45941176470589,504.494157958748
-0.0577177734375,0.1098896484375,1.3215869140625005,1.3274031217477011,0.47509765625,-0.27490234375,-1.12451171875,42.224117647058826,504.494157958748
-0.0484404296875,0.0649677734375,1.3186572265625005,1.3211450215548788,0.39892578125,-0.1435546875,-1.1962890625,42.41235294117647,504.5263420835231
-0.0611357421875,0.0019794921875,1.2683642578125005,1.2698383313864767,0.35009765625,0.158203125,-1.36669921875,41.94176470588236,504.5263420835231
-0.0923857421875,-0.0610087890625,1.2356494140625005,1.2405993197545322,0.24365234375,0.388671875,-1.3251953125,41.94176470588236,504.5263420835231
-0.0772490234375,-0.0751689453125,1.2151416015625005,1.2199126582707958,0.12109375,0.55078125,-1.20654296875,42.13,504.5263420835231
-0.0523466796875,-0.0776103515625,1.1565478515625005,1.1603303299051506,-0.0048828125,0.5771484375,-1.21240234375,42.08294117647059,504.4297903165496
-0.0372099609375,-0.0795634765625,1.0872119140625005,1.0907541767397122,-0.1240234375,0.5283203125,-1.265625,42.224117647058826,504.4297903165496
-0.0606474609375,-0.0790751953125,1.0261767578125005,1.0310042382582385,-0.23876953125,0.48095703125,-1.3095703125,42.224117647058826,504.4297903165496
-0.1006865234375,-0.0795634765625,0.9529345703125,0.9615364881798876,-0.27099609375,0.4873046875,-1.1103515625,42.31823529411765,504.4297903165496
-0.1270537109375,-0.0785869140625,0.8850634765625001,0.8975833699828422,-0.326171875,0.4658203125,-0.77001953125,42.31823529411765,504.4297903165496
-0.1373076171875,-0.0614970703125,0.8269580078125001,0.8405324610507012,-0.33642578125,0.4150390625,-0.47802734375,42.27117647058824,504.161287415203
-0.1417021484375,-0.0458720703125,0.7576220703125001,0.7721236605176383,-0.33251953125,0.35986328125,-0.22265625,42.31823529411765,504.161287415203
-0.1475615234375,-0.0405009765625,0.7053759765625001,0.7217825161454194,-0.29052734375,0.32421875,-0.01318359375,42.224117647058826,504.161287415203
-0.1353544921875,-0.0302470703125,0.6555712890625001,0.6700816658146179,-0.2607421875,0.26611328125,0.16845703125,42.08294117647059,504.161287415203
-0.1319365234375,-0.0317119140625,0.6194384765625001,0.6341268942067922,-0.18212890625,0.216796875,0.3193359375,42.31823529411765,504.742466543782
-0.1314482421875,-0.0238994140625,0.5872119140625001,0.6022189422325235,-0.1640625,0.18603515625,0.421875,42.31823529411765,504.742466543782
-0.1221708984375,-0.0263408203125,0.5671923828125001,0.5807983870159101,-0.1298828125,0.21240234375,0.55078125,41.80058823529412,504.742466543782
-0.1207060546875,-0.0273173828125,0.5647509765625001,0.5781521050469711,-0.09765625,0.2705078125,0.62939453125,42.08294117647059,504.742466543782
-0.1167998046875,-0.0234111328125,0.5676806640625001,0.5800444912806635,-0.08544921875,0.3466796875,0.72119140625,41.94176470588236,504.742466543782
-0.1104521484375,-0.0185283203125,0.5789111328125001,0.5896448723107106,-0.095703125,0.443359375,0.705078125,42.224117647058826,504.7102815043218
-0.1177763671875,-0.0141337890624999,0.5891650390625001,0.6009879199407133,-0.09912109375,0.4501953125,0.708984375,42.224117647058826,504.7102815043218
-0.1177763671875,-0.0146220703124999,0.6155322265625001,0.6268692044957205,-0.1318359375,0.39892578125,0.69873046875,42.27117647058824,504.7102815043218
-0.1309599609375,-0.0131572265624999,0.6477587890625001,0.6609955164653425,-0.1298828125,0.3095703125,0.751953125,41.84764705882353,504.7102815043218
-0.1470732421875,-0.0229228515625,0.6902392578125001,0.7061063862597834,-0.1025390625,0.1943359375,0.88916015625,41.98882352941177,504.363548878945
-0.1534208984375,-0.0278056640625,0.7244189453125001,0.7410087282610113,-0.10595703125,0.0498046875,1.0244140625,42.31823529411765,504.363548878945
-0.1690458984375,-0.0146220703124999,0.7590869140625001,0.7778195573651351,-0.08447265625,-0.0419921875,1.09130859375,42.224117647058826,504.363548878945
-0.1768583984375,-0.0029033203124999,0.7913134765625001,0.8108417481581377,-0.09033203125,-0.1162109375,1.3017578125,42.41235294117647,504.363548878945
-0.1983427734375,0.0039326171875,0.8210986328125001,0.8447237927626875,-0.080078125,-0.0986328125,1.6083984375,42.224117647058826,504.363548878945
-0.2222685546875,0.0127216796875,0.8538134765625001,0.882361946310404,-0.07958984375,0.01904296875,1.84814453125,42.08294117647059,504.223775286358
-0.2339873046875,0.0259052734375,0.8884814453125001,0.9191411320419632,-0.0625,0.18896484375,2.01123046875,42.224117647058826,504.223775286358
-0.2242216796875,0.0346943359375,0.9246142578125,0.9520454738814677,-0.0458984375,0.3349609375,2.13330078125,41.98882352941177,504.223775286358
-0.1919951171875,0.0625263671875,0.9568408203125,0.9779141204798129,-0.03466796875,0.3857421875,2.26318359375,42.31823529411765,504.223775286358
-0.1622099609375,0.0776630859375,0.9836962890625,1.0000010077294994,-0.00927734375,0.29150390625,2.45361328125,42.224117647058826,503.9736022233056
-0.1426787109375,0.0967060546875,0.9841845703125,0.9991639224918044,0.015625,0.12646484375,2.6640625,42.08294117647059,503.9736022233056
-0.1500029296875,0.1162373046875,0.9812548828125,0.9994364086620124,0.03369140625,-0.02099609375,2.783203125,42.27117647058824,503.9736022233056
-0.1871123046875,0.1303974609375,0.9939501953125,1.0197801249025065,0.06640625,0.04443359375,2.6494140625,42.27117647058824,503.9736022233056
-0.2569365234375,0.1186787109375,1.0335009765625005,1.0715527434809626,0.16259765625,0.3271484375,2.29931640625,42.27117647058824,503.9736022233056
-0.3272490234375,0.1025654296875,1.0720751953125005,1.125591762190944,0.2587890625,0.7734375,1.91259765625,42.506470588235295,503.94141997400783
-0.4073271484375,0.0508076171875,1.1194384765625005,1.1923251748692838,0.26806640625,1.3203125,1.62744140625,42.224117647058826,503.94141997400783
-0.4498076171875,0.0117451171875,1.1804736328125005,1.2633221434072888,0.26025390625,1.705078125,1.513671875,42.27117647058824,503.94141997400783
-0.4571318359375,-0.0043681640624999,1.2498095703125005,1.330793957879875,0.2353515625,2.080078125,1.42138671875,42.13,503.94141997400783
-0.4175810546875,0.0874287109375,1.3054736328125005,1.3734187717876818,0.24609375,2.27392578125,1.38037109375,42.13,503.3685040696045
-0.3184599609375,-0.0610087890625,1.3269580078125005,1.3660001367353176,0.23388671875,2.18359375,1.2373046875,42.27117647058824,503.3685040696045
-0.2662138671875,-0.0658916015625,1.3001025390625005,1.328712963102323,0.19775390625,2.056640625,1.0537109375,41.84764705882353,503.3685040696045
-0.2496123046875,-0.0243876953125,1.3147509765625005,1.3384585136290583,0.10009765625,2.1328125,0.94140625,42.31823529411765,503.3685040696045
-0.1939482421875,0.0176044921875,1.3420947265625005,1.3561504687385075,0.07080078125,2.02880859375,0.81103515625,42.224117647058826,503.3685040696045
-0.1529326171875,0.0498310546875,1.3484423828125005,1.358001612361392,0.04931640625,1.75,0.77978515625,42.27117647058824,503.45494453560303
-0.0928740234375,0.0547138671875,1.3909228515625005,1.395093391315018,0.1015625,1.6787109375,0.890625,42.224117647058826,503.45494453560303
-0.0552763671875,0.0376240234375,1.3889697265625005,1.390578277270352,0.14306640625,1.45654296875,0.9482421875,42.224117647058826,503.45494453560303
0.0042939453125,-0.0053447265624999,1.3337939453125005,1.333811565634614,0.16796875,1.298828125,0.9384765625,42.08294117647059,503.45494453560303
0.0814423828125,-0.0658916015625,1.2800830078125005,1.2843625157115677,0.1865234375,1.04833984375,0.79296875,42.224117647058826,504.1244134909204
0.1180634765625,-0.1425517578125,1.1985400390625005,1.21274820692071,0.0390625,0.63671875,0.29736328125,42.27117647058824,504.1244134909204
0.1146455078125,-0.1991923828125,1.1692431640625005,1.1916168740576791,-0.09619140625,0.32177734375,-0.46826171875,42.224117647058826,504.1244134909204
0.0399384765625,-0.2387431640625,1.1785205078125005,1.2031225904417806,-0.36474609375,-0.06591796875,-0.71533203125,42.31823529411765,504.1244134909204
-0.0347685546875,-0.2265361328125,1.1931689453125005,1.2149813183431442,-0.52001953125,-0.49609375,-0.7470703125,42.41235294117647,504.1244134909204
-0.1133818359375,-0.1596416015625,1.2234423828125005,1.2390125688353313,-0.6328125,-0.78271484375,-0.0634765625,42.224117647058826,504.53551019580135
-0.1622099609375,-0.0981181640625,1.2244189453125005,1.2390080706704525,-0.65966796875,-0.7919921875,0.654296875,42.41235294117647,504.53551019580135
-0.1670927734375,-0.0507548828125,1.2024462890625005,1.215060957789577,-0.74951171875,-0.595703125,1.013671875,42.13,504.53551019580135
-0.1915068359375,-0.0185283203125,1.1731494140625005,1.188821986076798,-0.564453125,-0.39013671875,1.21826171875,42.224117647058826,504.53551019580135
-0.1959013671875,0.0244404296875,1.1340869140625005,1.1511419586293632,-0.478515625,-0.279296875,1.49267578125,42.08294117647059,504.67529077273497
-0.1876005859375,0.0542255859375,1.0964892578125005,1.1137428278164427,-0.32958984375,-0.3203125,1.75830078125,42.224117647058826,504.67529077273497
-0.1651396484375,0.0703388671875,1.0242236328125005,1.0398330201214605,-0.16064453125,-0.41162109375,1.94775390625,42.224117647058826,504.67529077273497
-0.1475615234375,0.0722919921875,0.9426806640625,0.9568946492331064,-0.05810546875,-0.58642578125,2.06640625,42.13,504.67529077273497
-0.1119169921875,0.0669208984375,0.8821337890625001,0.8917195980765156,-0.02392578125,-0.58203125,1.91796875,42.224117647058826,504.67529077273497
-0.1026396484375,0.0678974609375,0.8455126953125001,0.8544218399407528,0.02392578125,-0.4736328125,1.67333984375,42.08294117647059,504.67435636407873
-0.0865263671875,0.0566669921875,0.7815478515625001,0.7883622292475736,0.041015625,-0.39697265625,1.4326171875,42.224117647058826,504.67435636407873
-0.0860380859375,0.0405537109375,0.7205126953125001,0.7267638542257551,0.1064453125,-0.40283203125,1.10498046875,42.224117647058826,504.67435636407873
-0.1036162109375,0.0171162109375,0.6760791015625001,0.6841872809512457,0.12890625,-0.4365234375,0.7861328125,42.31823529411765,504.67435636407873
-0.1114287109375,0.0068623046875,0.6477587890625001,0.6573088297402777,0.1484375,-0.49169921875,0.6220703125,42.27117647058824,504.8803808186938
-0.1158232421875,-0.0043681640624999,0.6243212890625001,0.6349891150758121,0.14501953125,-0.57470703125,0.2724609375,41.94176470588236,504.8803808186938
-0.1104521484375,0.0014912109375,0.6028369140625001,0.6128737600525231,0.13671875,-0.59130859375,0.00390625,42.13,504.8803808186938
-0.1114287109375,-0.0107158203124999,0.6116259765625001,0.621785752194592,0.12841796875,-0.57861328125,-0.22509765625,42.224117647058826,504.8803808186938
-0.1275419921875,-0.0370830078125,0.5979541015625001,0.6125285436736764,0.1396484375,-0.55712890625,-0.4736328125,42.224117647058826,504.8803808186938
-0.1417021484375,-0.0341533203125,0.6126025390625001,0.6297045489957918,0.11865234375,-0.58984375,-0.71484375,42.224117647058826,504.94475412993376
-0.1568388671875,-0.0263408203125,0.6292041015625001,0.6489915796822533,0.125,-0.5478515625,-0.91259765625,42.224117647058826,504.94475412993376
-0.1646513671875,-0.0297587890625,0.6545947265625001,0.675640373487711,0.13134765625,-0.4892578125,-1.1181640625,42.224117647058826,504.94475412993376
-0.1778349609375,-0.0180400390625,0.6980517578125001,0.7205740579053204,0.14306640625,-0.396484375,-1.271484375,42.08294117647059,504.94475412993376
-0.1924833984375,-0.0029033203124999,0.7288134765625001,0.7538085775327873,0.1318359375,-0.3125,-1.4658203125,42.08294117647059,504.3717803279075
-0.2105498046875,-0.0160869140625,0.7644580078125001,0.7930864106556454,0.16015625,-0.3046875,-1.486328125,42.08294117647059,504.3717803279075
-0.2032255859375,-0.0204814453125,0.7800830078125001,0.8063805723475276,0.17041015625,-0.3515625,-1.47412109375,42.224117647058826,504.3717803279075
-0.2203154296875,-0.0361064453125,0.8103564453125001,0.8405475194246921,0.1962890625,-0.38720703125,-1.419921875,42.27117647058824,504.3717803279075
-0.2232451171875,-0.0414775390625,0.8411181640625001,0.8712281759163971,0.169921875,-0.32275390625,-1.46630859375,42.13,504.3717803279075
-0.2266630859375,-0.0473369140625,0.8757861328125001,0.9058798421348964,0.16650390625,-0.203125,-1.376953125,42.224117647058826,504.1225398014183
-0.2334990234375,-0.0473369140625,0.8958056640625001,0.9269467973652444,0.17724609375,-0.1201171875,-1.5595703125,41.98882352941177,504.1225398014183
-0.2452177734375,-0.0541728515625,0.8918994140625001,0.9265802820377136,0.18505859375,0.04248046875,-1.578125,42.31823529411765,504.1225398014183
-0.2540068359375,-0.0566142578125,0.9060595703125,0.9426922041926052,0.1875,0.1728515625,-1.5751953125,42.41235294117647,504.1225398014183
-0.2442412109375,-0.0536845703125,0.9251025390625,0.9583060627950438,0.240234375,0.2783203125,-1.55078125,41.98882352941177,504.0682762192756
-0.2247099609375,-0.0522197265625,0.9451220703125,0.9728705947753696,0.30419921875,0.34765625,-1.60693359375,42.224117647058826,504.0682762192756
-0.1988310546875,-0.0444072265625,0.9617236328125,0.9830656824389656,0.3349609375,0.3681640625,-1.78076171875,42.224117647058826,504.0682762192756
-0.1797880859375,-0.0571025390625,0.9988330078125,1.0164899573080983,0.34326171875,0.3515625,-2.0068359375,42.31823529411765,504.0682762192756
-0.1827177734375,-0.0854228515625,1.0335009765625005,1.052999105818551,0.3134765625,0.32568359375,-2.17041015625,42.45941176470589,504.0682762192756
-0.1988310546875,-0.1122783203125,1.0735400390625005,1.0975556591766336,0.29443359375,0.4013671875,-2.29296875,42.27117647058824,504.1758675244562
-0.2417998046875,-0.1274150390625,1.1282275390625005,1.1608613688228395,0.21484375,0.603515625,-2.37939453125,42.27117647058824,504.1758675244562
-0.2876982421875,-0.1274150390625,1.1560595703125005,1.1981146025519422,0.119140625,0.83837890625,-2.443359375,42.224117647058826,504.1758675244562
-0.3702177734375,-0.1210673828125,1.1526416015625005,1.216676280940273,-0.05517578125,1.17041015625,-2.30029296875,42.224117647058826,504.1758675244562
-0.4390654296875,-0.0790751953125,1.2068408203125005,1.286660834731876,-0.10986328125,1.62255859375,-2.0283203125,41.98882352941177,503.8089384946055
-0.4371123046875,-0.0121806640624999,1.3162158203125005,1.3869533593914145,-0.03955078125,2.04443359375,-1.931640625,42.31823529411765,503.8089384946055
-0.3707060546875,0.0024677734375,1.4138720703125005,1.4616645648360866,-0.00830078125,2.15673828125,-2.02880859375,42.13,503.8089384946055
-0.2715849609375,0.0503193359375,1.4387744140625005,1.4650468392298948,-0.01171875,2.00390625,-2.26904296875,42.08294117647059,503.8089384946055
-0.2022490234375,0.0620380859375,1.4080126953125005,1.4238164002951303,-0.087890625,1.7392578125,-2.34765625,42.224117647058826,503.8089384946055
-0.1753935546875,0.0263935546875,1.3674853515625005,1.3789400659539102,-0.10498046875,1.60107421875,-2.14306640625,41.98882352941177,503.5486684391989
-0.1675810546875,0.0146748046875,1.3484423828125005,1.3588949994564865,-0.0673828125,1.55029296875,-1.798828125,42.08294117647059,503.5486684391989
-0.1207060546875,0.0249287109375,1.3435595703125005,1.34920113817234,0.05078125,1.544921875,-1.44970703125,42.224117647058826,503.5486684391989
0.0296845703125,0.0346943359375,1.3347705078125005,1.335551264155301,0.12939453125,1.3916015625,-1.080078125,41.94176470588236,503.5486684391989
0.1678681640625,0.0434833984375,1.3064501953125005,1.317908433570959,0.173828125,1.1220703125,-1.02978515625,42.224117647058826,504.0241163059789
0.1468720703125,0.0542255859375,1.2468798828125005,1.2566707052249844,0.2548828125,0.59228515625,-1.095703125,41.98882352941177,504.0241163059789
0.0453095703125,0.0840107421875,1.2454150390625005,1.2490674047015424,0.3212890625,0.21875,-0.89013671875,42.224117647058826,504.0241163059789
-0.0293974609375,0.1255146484375,1.2463916015625005,1.2530403673176276,0.470703125,-0.236328125,-0.41943359375,42.08294117647059,504.0241163059789
-0.0723662109375,0.1401630859375,1.2512744140625005,1.2611781073394934,0.63720703125,-0.58935546875,-0.123046875,41.98882352941177,504.0241163059789
-0.0923857421875,0.1313740234375,1.2761767578125005,1.2862431249862978,0.70166015625,-0.81005859375,-0.056640625,42.27117647058824,504.4159405513808
-0.1172880859375,0.0840107421875,1.2673876953125005,1.2755727615997874,0.74658203125,-0.9990234375,-0.4931640625,42.13,504.4159405513808
-0.1377958984375,0.0254169921875,1.2517626953125005,1.259580715354944,0.69921875,-0.6943359375,-0.80078125,42.08294117647059,504.4159405513808
-0.1270537109375,-0.0331767578125,1.2263720703125005,1.23338225930346,0.5556640625,-0.49755859375,-0.8857421875,42.41235294117647,504.4159405513808
-0.1231474609375,-0.0756572265625,1.2029345703125005,1.211586106522934,0.41845703125,-0.35693359375,-0.97216796875,42.27117647058824,504.4904147038057
-0.1075224609375,-0.1039775390625,1.1677783203125005,1.177318399426185,0.22900390625,-0.18505859375,-1.04541015625,42.27117647058824,504.4904147038057
-0.0992216796875,-0.1220439453125,1.1067431640625005,1.1178640782789846,0.05224609375,-0.1962890625,-1.04541015625,41.98882352941177,504.4904147038057
-0.0777373046875,-0.1352275390625,1.0295947265625005,1.041342823870356,-0.08154296875,-0.28662109375,-1.01904296875,41.98882352941177,504.4904147038057
-0.0748076171875,-0.1454814453125,1.0774462890625005,1.0897942633057114,-0.08447265625,-0.31787109375,-0.8681640625,42.08294117647059,504.4904147038057
-0.0801787109375,-0.1376689453125,0.9031298828125,0.9170741242778444,-0.21728515625,-0.30078125,-0.73583984375,42.31823529411765,504.6412364604645
-0.1036162109375,-0.1235087890625,0.8333056640625001,0.8487573680996082,-0.26220703125,-0.333984375,-0.65380859375,42.08294117647059,504.6412364604645
-0.1548857421875,-0.1113017578125,0.7673876953125001,0.7907348160680391,-0.2353515625,-0.302734375,-0.361328125,42.27117647058824,504.6412364604645
-0.1641630859375,-0.0868876953125,0.7151416015625001,0.7388683919796667,-0.283203125,-0.265625,-0.0732421875,42.224117647058826,504.6412364604645
-0.1724638671875,-0.0580791015625,0.6643603515625001,0.6888335388552328,-0.203125,-0.18505859375,0.11767578125,42.13,504.4904147038057
-0.1661162109375,-0.0400126953125,0.6233447265625001,0.6463391210933165,-0.18701171875,-0.09619140625,0.3525390625,42.27117647058824,504.4904147038057
-0.1456083984375,-0.0224345703125,0.5872119140625001,0.6054113871224964,-0.1474609375,-0.1279296875,0.50390625,42.224117647058826,504.4904147038057
-0.1465849609375,-0.0155986328124999,0.5793994140625001,0.5978579673590008,-0.0751953125,-0.1572265625,0.6298828125,42.27117647058824,504.4904147038057
-0.1377958984375,-0.0024150390624999,0.5701220703125001,0.5865430223754114,-0.00537109375,-0.27978515625,1.064453125,42.224117647058826,504.4904147038057
-0.1236357421875,0.0093037109375,0.5715869140625001,0.5848794372440823,0.08935546875,-0.40966796875,1.2314453125,41.94176470588236,504.6964363693553
-0.1119169921875,0.0185810546875,0.5793994140625001,0.5904018544597952,0.15966796875,-0.474609375,1.23046875,42.41235294117647,504.6964363693553
-0.1207060546875,0.0166279296875,0.5994189453125001,0.6116776207149188,0.19091796875,-0.50830078125,1.11962890625,41.98882352941177,504.6964363693553
-0.1275419921875,0.0180927734375,0.6384814453125001,0.6513469614807119,0.18701171875,-0.52734375,1.1201171875,42.224117647058826,504.6964363693553
-0.1363310546875,0.0283466796875,0.6619189453125001,0.6764069639537461,0.2333984375,-0.57470703125,1.15625,42.27117647058824,504.4692697611263
-0.1412138671875,0.0259052734375,0.7107470703125001,0.7251026392420058,0.26904296875,-0.5869140625,1.181640625,42.08294117647059,504.4692697611263
-0.1602568359375,0.0146748046875,0.7561572265625001,0.773092073843735,0.3251953125,-0.5986328125,1.15673828125,42.08294117647059,504.4692697611263
-0.1749052734375,0.0053974609375,0.8093798828125001,0.8280801784624451,0.328125,-0.58837890625,1.0439453125,41.94176470588236,504.4692697611263
-0.1836943359375,0.0019794921875,0.8513720703125001,0.8709660897836562,0.283203125,-0.66455078125,0.99853515625,42.08294117647059,504.4692697611263
-0.1749052734375,0.0049091796875,0.8855517578125001,0.9026726264190466,0.228515625,-0.689453125,1.00537109375,42.224117647058826,504.1446198580802
-0.1641630859375,0.0078388671875,0.8933642578125001,0.9083560225815566,0.1318359375,-0.5546875,0.96435546875,42.27117647058824,504.1446198580802
-0.1876005859375,0.0132099609375,0.9158251953125,0.9349354369587466,0.0771484375,-0.359375,0.935546875,42.41235294117647,504.1446198580802
-0.2208037109375,0.0195576171875,0.9407275390625,0.966491118378442,0.0283203125,-0.13232421875,0.966796875,42.27117647058824,504.1446198580802
-0.2164091796875,0.0234638671875,0.9631884765625,0.987479380796986,-0.0009765625,0.0419921875,1.08544921875,42.224117647058826,504.0903562593649
-0.1973662109375,0.0288349609375,0.9788134765625,0.9989297763569072,-0.04931640625,0.095703125,1.2509765625,42.31823529411765,504.0903562593649
-0.1895537109375,0.0449482421875,1.0012744140625005,1.0200497076427828,-0.01318359375,0.12158203125,1.49267578125,41.84764705882353,504.0903562593649
-0.1773466796875,0.0683857421875,1.0056689453125005,1.0234737329783663,0.06982421875,-0.19091796875,1.7216796875,42.224117647058826,504.0903562593649
-0.2032255859375,0.0893818359375,1.0066455078125005,1.0308370044649566,0.11865234375,-0.18701171875,1.8388671875,42.224117647058826,504.0903562593649
-0.2564482421875,0.1050068359375,1.0222705078125005,1.0591643534682853,0.1923828125,0.091796875,1.90625,42.31823529411765,504.197947475209
-0.3165068359375,0.1137958984375,1.0701220703125005,1.1217340723479328,0.35986328125,0.4794921875,1.94677734375,42.31823529411765,504.197947475209
-0.3555693359375,0.0835224609375,1.0969775390625005,1.1561856578195866,0.44580078125,0.990234375,1.90087890625,42.31823529411765,504.197947475209
-0.3931669921875,0.0307880859375,1.1272509765625005,1.1942457678981204,0.44580078125,1.5244140625,2.025390625,42.224117647058826,504.197947475209
-0.3892607421875,0.0097919921875,1.1770556640625005,1.2397902422672058,0.44970703125,2.05908203125,2.09619140625,41.89470588235295,503.8944465783789
-0.3516630859375,-0.0307353515625,1.2234423828125005,1.2733510324763884,0.48828125,2.40625,2.0849609375,41.98882352941177,503.8944465783789
-0.2501005859375,-0.0761455078125,1.2668994140625005,1.2935928906724137,0.42626953125,2.40380859375,1.93408203125,42.224117647058826,503.8944465783789
-0.1348662109375,-0.1230205078125,1.2605517578125005,1.273700778958413,0.20458984375,2.06201171875,1.544921875,41.98882352941177,503.8944465783789
-0.0997099609375,-0.1244853515625,1.2639697265625005,1.27399299398791,-0.01123046875,1.71240234375,1.24609375,42.27117647058824,503.8944465783789
-0.1011748046875,-0.0956767578125,1.2703173828125005,1.2779266943626564,-0.07666015625,1.67041015625,1.08837890625,42.224117647058826,503.6139701272666
-0.0777373046875,-0.0429423828125,1.2922900390625005,1.295338056972716,-0.08642578125,1.48779296875,1.0419921875,42.13,503.6139701272666
-0.0186552734375,0.0136982421875,1.2835009765625005,1.2837096314599137,-0.00830078125,1.31787109375,0.984375,41.98882352941177,503.6139701272666
0.0355439453125,0.0053974609375,1.2942431640625005,1.2947423961373403,0.05322265625,1.13623046875,1.2392578125,42.27117647058824,503.6139701272666
0.0531220703125,-0.0141337890624999,1.2493212890625005,1.2505300482804629,0.11474609375,0.90234375,1.71923828125,42.224117647058826,503.7215560904401
0.0389619140625,-0.0453837890625,1.2341845703125005,1.2356331464696688,0.18017578125,0.7841796875,2.04638671875,42.08294117647059,503.7215560904401
0.0609345703125,-0.1113017578125,1.2522509765625005,1.258663422624594,0.25390625,0.490234375,1.93408203125,42.31823529411765,503.7215560904401
0.0887666015625,-0.1767314453125,1.2253955078125005,1.2412524577547697,0.0634765625,0.03564453125,1.2705078125,42.08294117647059,503.7215560904401
0.0833955078125,-0.2011455078125,1.2234423828125005,1.24266873707291,-0.10400390625,-0.3515625,0.40087890625,42.31823529411765,503.7215560904401
0.0003876953125,-0.1967509765625,1.2668994140625005,1.2820862772987858,-0.296875,-0.73046875,-0.1923828125,42.41235294117647,504.25034086063295
-0.1172880859375,-0.1572001953125,1.2986376953125005,1.3133652424956788,-0.48046875,-0.9228515625,0.05322265625,42.27117647058824,504.25034086063295
-0.1866240234375,-0.0903056640625,1.2996142578125005,1.3160474376690627,-0.57861328125,-0.8427734375,0.625,42.08294117647059,504.25034086063295
-0.1988310546875,-0.0190166015625,1.2961962890625005,1.3114954209689516,-0.5283203125,-0.52294921875,1.216796875,41.98882352941177,504.25034086063295
-0.2066435546875,0.0136982421875,1.2693408203125005,1.2861241458912605,-0.4326171875,-0.15966796875,1.37646484375,42.08294117647059,504.2291961493058
-0.1934599609375,0.0346943359375,1.2293017578125005,1.244914963036828,-0.25390625,0.06396484375,1.763671875,42.224117647058826,504.2291961493058
-0.1685576171875,0.0615498046875,1.1707080078125005,1.1843805504673364,-0.1337890625,0.14697265625,2.06396484375,42.13,504.2291961493058
-0.1329130859375,0.0742451171875,1.1028369140625005,1.113295775999583,0.01220703125,0.13427734375,2.24462890625,41.84764705882353,504.2291961493058
-0.0933623046875,0.0649677734375,1.0198291015625005,1.0261523902012626,0.15234375,0.1171875,2.24072265625,42.224117647058826,504.2291961493058
-0.0777373046875,0.0493427734375,0.9475634765625,0.9520264386800364,0.21484375,0.138671875,2.20263671875,41.94176470588236,504.2494061718759
-0.0718779296875,0.0298115234375,0.8962939453125001,0.8996654934528014,0.3115234375,0.166015625,2.109375,42.27117647058824,504.2494061718759
-0.0621123046875,0.0386005859375,0.8445361328125001,0.8476964216358377,0.3271484375,0.14599609375,1.82421875,42.13,504.2494061718759
-0.0626005859375,0.0239521484375,0.8035205078125001,0.8063111962820239,0.28857421875,0.14208984375,1.44580078125,42.08294117647059,504.2494061718759
-0.0811552734375,0.0014912109375,0.7629931640625001,0.7672984885446344,0.2841796875,0.080078125,0.98388671875,42.31823529411765,503.9909965170298
-0.1148466796875,-0.0097392578124999,0.7190478515625001,0.728226905445431,0.28564453125,0.05078125,0.64208984375,42.31823529411765,503.9909965170298
-0.1197294921875,-0.0263408203125,0.6882861328125001,0.6991185813123539,0.26318359375,-0.02685546875,0.4453125,41.94176470588236,503.9909965170298
-0.1294951171875,-0.0263408203125,0.6794970703125001,0.6922276307353026,0.224609375,-0.06005859375,0.2099609375,42.31823529411765,503.9909965170298
-0.1392607421875,-0.0341533203125,0.6658251953125001,0.6810897109161982,0.23486328125,-0.09521484375,0.0439453125,42.08294117647059,503.9909965170298
-0.1465849609375,-0.0341533203125,0.6585009765625001,0.6754828911195182,0.18359375,-0.11279296875,-0.0771484375,42.45941176470589,504.4674001576956
-0.1373076171875,-0.0341533203125,0.6653369140625001,0.6802154366377522,0.2373046875,-0.00048828125,-0.30859375,42.224117647058826,504.4674001576956
-0.1553740234375,-0.0326884765625,0.6716845703125001,0.6901954691643678,0.1962890625,0.05810546875,-0.466796875,42.08294117647059,504.4674001576956
-0.1758818359375,-0.0253642578125,0.6838916015625001,0.706601364614339,0.19140625,0.1357421875,-0.49658203125,42.08294117647059,504.4674001576956
-0.1792998046875,-0.0136455078124999,0.6951220703125001,0.7180036994890576,0.1826171875,0.22802734375,-0.50537109375,42.224117647058826,504.1187977594678
-0.1797880859375,-0.0092509765624999,0.7048876953125001,0.7275135733547503,0.18408203125,0.3369140625,-0.52685546875,42.31823529411765,504.1187977594678
-0.1778349609375,-0.0033916015624999,0.7244189453125001,0.7459353756328198,0.20068359375,0.40185546875,-0.6103515625,42.41235294117647,504.1187977594678
-0.1895537109375,-0.0087626953124999,0.7415087890625001,0.7654036049145916,0.21044921875,0.4150390625,-0.68701171875,42.13,504.1187977594678
-0.2125029296875,-0.0126689453124999,0.7507861328125001,0.7803831203483649,0.2158203125,0.3994140625,-0.76708984375,42.224117647058826,504.1187977594678
-0.2237333984375,-0.0155986328124999,0.7688525390625001,0.8008958594879022,0.22509765625,0.4033203125,-0.82421875,42.08294117647059,504.2494061718759
-0.2017607421875,-0.0107158203124999,0.7756884765625001,0.8015702330830861,0.2568359375,0.40283203125,-0.85498046875,42.224117647058826,504.2494061718759
-0.1959013671875,-0.0033916015624999,0.7849658203125001,0.8090489402291845,0.26416015625,0.38427734375,-0.9287109375,42.224117647058826,504.2494061718759
-0.2061552734375,-0.0063212890624999,0.7986376953125001,0.8248406657261532,0.27490234375,0.45947265625,-1.01416015625,42.08294117647059,504.2494061718759
-0.2071318359375,-0.0151103515624999,0.8176806640625001,0.8436430457040898,0.333984375,0.5302734375,-1.14990234375,42.08294117647059,504.302736759252
-0.1895537109375,-0.0229228515625,0.8450244140625001,0.8663269168250547,0.3671875,0.5654296875,-1.333984375,42.27117647058824,504.302736759252
-0.1822294921875,-0.0195048828125,0.8811572265625001,0.9000144922165201,0.41162109375,0.57861328125,-1.64013671875,42.27117647058824,504.302736759252
-0.1939482421875,-0.0082744140624999,0.9187548828125,0.9390393608723276,0.4619140625,0.58447265625,-1.9326171875,42.31823529411765,504.302736759252
-0.1954130859375,-0.0087626953124999,0.9534228515625,0.9732821753563174,0.482421875,0.54736328125,-2.1533203125,41.98882352941177,504.302736759252
-0.1924833984375,-0.0063212890624999,0.9924853515625,1.0109980170285204,0.46728515625,0.56982421875,-2.30078125,42.224117647058826,504.2916970053207
-0.2144560546875,-0.0278056640625,1.0535205078125005,1.0754859435285953,0.46826171875,0.7265625,-2.3984375,41.98882352941177,504.2916970053207
-0.2383818359375,-0.0273173828125,1.1306689453125005,1.1558479151699586,0.4189453125,0.82763671875,-2.50927734375,42.224117647058826,504.2916970053207
-0.2706083984375,-0.0248759765625,1.1594775390625005,1.1908970917360069,0.36572265625,1.0625,-2.62109375,42.41235294117647,504.2916970053207
-0.3360380859375,-0.0121806640624999,1.1609423828125005,1.2086592489150565,0.2548828125,1.421875,-2.52880859375,42.27117647058824,503.5237753381953
-0.3751005859375,0.0088154296875,1.2346728515625005,1.2904244308585866,0.17236328125,1.77197265625,-2.28759765625,42.506470588235295,503.5237753381953
-0.3663115234375,0.0342060546875,1.3440478515625005,1.3934915908142966,0.1025390625,1.93408203125,-2.13916015625,41.98882352941177,503.5237753381953
-0.3350615234375,0.0595966796875,1.4075244140625005,1.4480825131531758,0.09033203125,1.9208984375,-2.111328125,42.224117647058826,503.5237753381953
-0.3106474609375,0.0561787109375,1.4446337890625005,1.4787240030007598,0.0166015625,1.81103515625,-2.255859375,42.41235294117647,503.5237753381953
-0.2920927734375,0.0190693359375,1.4197314453125005,1.4495927720144817,-0.0498046875,1.68896484375,-2.4033203125,42.41235294117647,502.9849218763087
-0.2544951171875,-0.0238994140625,1.4133837890625005,1.436312181195119,-0.14990234375,1.68798828125,-2.46435546875,42.31823529411765,502.9849218763087
-0.2120146484375,-0.0155986328124999,1.3938525390625005,1.409971073869487,-0.19482421875,1.71923828125,-2.41357421875,42.08294117647059,502.9849218763087
-0.1910185546875,0.0010029296875,1.3953173828125005,1.40833223810349,-0.18408203125,1.765625,-2.08447265625,42.31823529411765,502.9849218763087
-0.0762724609375,0.0386005859375,1.4016650390625005,1.40426933857514,-0.111328125,1.5732421875,-1.5546875,42.27117647058824,503.6203233531122
0.0384736328125,0.0664326171875,1.3362353515625005,1.338438802416282,-0.01904296875,1.203125,-1.19873046875,42.224117647058826,503.6203233531122
0.0667939453125,0.0752216796875,1.2258837890625005,1.2300043888180443,0.0615234375,1.0087890625,-0.8505859375,42.506470588235295,503.6203233531122
0.0633759765625,0.1162373046875,1.2058642578125005,1.2131101490285032,0.21435546875,0.72314453125,-0.4404296875,41.98882352941177,503.6203233531122
0.0443330078125,0.1631123046875,1.2004931640625005,1.212334473849096,0.42919921875,0.279296875,-0.01806640625,42.13,503.6203233531122
0.0067353515625,0.1845966796875,1.2224658203125005,1.2363429867737488,0.67578125,-0.0869140625,0.23046875,42.08294117647059,504.02037468978017
-0.0113310546875,0.1489521484375,1.2322314453125005,1.2412531853499558,0.810546875,-0.42138671875,-0.03125,42.27117647058824,504.02037468978017
-0.0572294921875,0.0849873046875,1.2293017578125005,1.2335642944309746,0.73291015625,-0.5986328125,-0.58544921875,41.84764705882353,504.02037468978017
-0.1080107421875,0.0195576171875,1.2180712890625005,1.2230071488165262,0.6279296875,-0.49755859375,-0.97412109375,42.224117647058826,504.02037468978017
-0.1431669921875,-0.0278056640625,1.1936572265625005,1.2025337904320412,0.3681640625,-0.34375,-1.12353515625,42.506470588235295,504.183167539142
-0.1534208984375,-0.0663798828125,1.1736376953125005,1.185482897716373,0.19482421875,-0.24560546875,-1.13330078125,42.31823529411765,504.183167539142
-0.1216826171875,-0.0927470703125,1.1404345703125005,1.1506518533166357,0.0205078125,-0.189453125,-1.10400390625,42.31823529411765,504.183167539142
-0.0943388671875,-0.1166728515625,1.0774462890625005,1.087843224903524,-0.12890625,-0.2490234375,-1.1953125,42.224117647058826,504.183167539142
-0.0806669921875,-0.1264384765625,1.0115283203125005,1.022586619694514,-0.30517578125,-0.2197265625,-1.2587890625,42.224117647058826,504.183167539142
-0.0938505859375,-0.1254619140625,0.9500048828125,0.9628384608690236,-0.4140625,-0.21923828125,-1.24853515625,42.224117647058826,504.4535593707299
-0.0098662109375,-0.1191142578125,0.9021533203125,0.9100363519570822,-0.49072265625,-0.16015625,-1.0458984375,42.31823529411765,504.4535593707299
-0.1670927734375,-0.1034892578125,0.8430712890625001,0.8656784737182295,-0.5283203125,-0.16796875,-0.77783203125,42.13,504.4535593707299
-0.1910185546875,-0.0883525390625,0.7859423828125001,0.8136336328438509,-0.5771484375,-0.09716796875,-0.44970703125,42.08294117647059,504.4535593707299
-0.1812529296875,-0.0663798828125,0.7195361328125001,0.7449772881002956,-0.5419921875,-0.1142578125,-0.15478515625,42.31823529411765,504.1399428050999
-0.1841826171875,-0.0517314453125,0.6716845703125001,0.6983978385591161,-0.49267578125,-0.07763671875,0.06787109375,42.31823529411765,504.1399428050999
-0.1836943359375,-0.0317119140625,0.6311572265625001,0.6581099446073532,-0.43212890625,-0.15625,0.33251953125,42.224117647058826,504.1399428050999
-0.1856474609375,-0.0234111328125,0.5994189453125001,0.627945963353261,-0.37890625,-0.21728515625,0.57421875,41.84764705882353,504.1399428050999
-0.1866240234375,-0.0019267578124999,0.5706103515625001,0.6003569037080764,-0.36328125,-0.29345703125,0.8515625,42.13,504.1399428050999
-0.1905302734375,-0.0024150390624999,0.5784228515625001,0.6089996820356607,-0.29248046875,-0.29931640625,1.17041015625,42.31823529411765,504.4526266317095
-0.1900419921875,0.0044208984375,0.5764697265625001,0.6070031703217308,-0.193359375,-0.2919921875,1.47216796875,42.13,504.4526266317095
-0.1646513671875,0.0210224609375,0.5872119140625001,0.6102211472880357,-0.1357421875,-0.21630859375,1.55322265625,42.13,504.4526266317095
-0.1519560546875,0.0205341796875,0.6160205078125001,0.6348177385180722,-0.0966796875,-0.1611328125,1.5537109375,42.224117647058826,504.4526266317095
-0.1509794921875,0.0112568359375,0.6423876953125001,0.6599874805671881,-0.09228515625,-0.15771484375,1.58740234375,42.31823529411765,504.37721449229633
-0.1612333984375,0.0019794921875,0.6716845703125001,0.6907678981806508,-0.041015625,-0.24365234375,1.68896484375,42.224117647058826,504.37721449229633
-0.1695341796875,-0.0063212890624999,0.7214892578125001,0.7411670162092734,-0.0166015625,-0.33056640625,1.8251953125,42.13,504.37721449229633
-0.1709990234375,-0.0116923828124999,0.7644580078125001,0.7834369301616239,-0.0400390625,-0.41796875,1.8828125,42.31823529411765,504.37721449229633
-0.1661162109375,-0.0009501953124999,0.8059619140625001,0.8229034605144473,-0.05419921875,-0.4931640625,1.8642578125,42.08294117647059,504.37721449229633
-0.1700224609375,0.0083271484375,0.8377001953125001,0.854820797507258,-0.08544921875,-0.52197265625,1.81298828125,42.31823529411765,503.6745859027711
-0.1949248046875,0.0127216796875,0.8733447265625001,0.8949237576637796,-0.1103515625,-0.537109375,1.79638671875,42.224117647058826,503.6745859027711
-0.2276396484375,0.0127216796875,0.8831103515625001,0.9120666333726184,-0.13720703125,-0.47607421875,1.8603515625,42.45941176470589,503.6745859027711
-0.2476591796875,0.0298115234375,0.9070361328125,0.9407116149174544,-0.16748046875,-0.28271484375,1.84814453125,41.98882352941177,503.6745859027711
-0.2540068359375,0.0337177734375,0.9294970703125,0.9641686391228887,-0.169921875,-0.0751953125,1.9306640625,42.224117647058826,503.5136727398089
-0.2330107421875,0.0508076171875,0.9558642578125,0.9851659247570852,-0.166015625,0.072265625,2.0341796875,41.98882352941177,503.5136727398089
-0.2173857421875,0.0625263671875,0.9734423828125,0.9993778965715392,-0.12841796875,0.10009765625,2.17041015625,42.224117647058826,503.5136727398089
-0.2027373046875,0.0737568359375,1.0007861328125005,1.0237750579054283,-0.083984375,0.005859375,2.388671875,42.13,503.5136727398089
-0.2037138671875,0.0967060546875,1.0076220703125005,1.0325471598326914,0.01611328125,-0.203125,2.59130859375,42.08294117647059,503.5136727398089
-0.2056669921875,0.1264912109375,1.0066455078125005,1.0351976219635433,0.0986328125,-0.2470703125,2.681640625,42.08294117647059,503.8907025648556
-0.2222685546875,0.1352802734375,1.0261767578125005,1.058651406771261,0.17822265625,-0.08203125,2.65625,42.27117647058824,503.8907025648556
-0.2510771484375,0.1328388671875,1.0520556640625005,1.0897279565970368,0.31298828125,0.18408203125,2.51953125,42.41235294117647,503.8907025648556
-0.3111357421875,0.1025654296875,1.0764697265625005,1.1252165078948548,0.44677734375,0.5927734375,2.43359375,42.31823529411765,503.8907025648556
-0.3594755859375,0.0727802734375,1.0940478515625005,1.153889234976767,0.52294921875,1.0654296875,2.23779296875,41.98882352941177,503.6102200302787
-0.4078154296875,0.0395771484375,1.1375048828125005,1.20904802790953,0.45703125,1.46923828125,1.9541015625,41.98882352941177,503.6102200302787
-0.4175810546875,0.0322529296875,1.1990283203125005,1.270072085205705,0.421875,1.8662109375,1.74609375,42.31823529411765,503.6102200302787
-0.3829130859375,0.0210224609375,1.2595751953125005,1.3166601869474794,0.44580078125,2.04541015625,1.63623046875,42.08294117647059,503.6102200302787
-0.2994169921875,0.0010029296875,1.2849658203125005,1.319389518091585,0.43408203125,1.91064453125,1.57958984375,42.31823529411765,503.6102200302787
-0.2696318359375,-0.0097392578124999,1.2737353515625005,1.3019976673995275,0.3828125,1.79150390625,1.57275390625,42.08294117647059,503.3811955638941
-0.2403349609375,0.0088154296875,1.2698291015625005,1.2924026278309837,0.3203125,1.89599609375,1.50146484375,42.224117647058826,503.3811955638941
-0.1861357421875,0.0146748046875,1.2683642578125005,1.282033445315902,0.2822265625,1.84912109375,1.44482421875,42.224117647058826,503.3811955638941
-0.1421904296875,0.0317646484375,1.2908251953125005,1.2990214763577346,0.33984375,1.61279296875,1.31103515625,42.08294117647059,503.3811955638941
-0.0845732421875,0.0161396484375,1.3308642578125005,1.3336464277568507,0.3291015625,1.2939453125,1.13916015625,42.224117647058826,503.6322996371391
-0.0127958984375,-0.0077861328124999,1.3303759765625005,1.3304602954976232,0.3173828125,0.9912109375,0.97509765625,42.41235294117647,503.6322996371391
0.0399384765625,-0.0375712890625,1.2761767578125005,1.2773542190217937,0.28125,0.6484375,1.064453125,42.224117647058826,503.6322996371391
0.0985322265625,-0.0785869140625,1.2371142578125005,1.2435176675931083,0.255859375,0.478515625,1.109375,42.45941176470589,503.6322996371391
0.1165986328125,-0.1415751953125,1.2175830078125005,1.2313192754177331,0.15234375,0.224609375,0.80322265625,42.224117647058826,503.6322996371391
0.0814423828125,-0.1962626953125,1.2092822265625005,1.2278091915153035,0.02685546875,-0.0185546875,0.10498046875,42.31823529411765,504.3753494268782
0.0033173828125,-0.2099345703125,1.2283251953125005,1.246140567624901,-0.24609375,-0.38427734375,-0.2607421875,42.45941176470589,504.3753494268782
-0.0943388671875,-0.2782939453125,1.2546923828125005,1.2886428199262692,-0.4443359375,-0.734375,-0.20849609375,42.27117647058824,504.3753494268782
-0.1568388671875,-0.0844462890625,1.2878955078125005,1.3001555464792294,-0.5947265625,-0.96044921875,0.373046875,42.224117647058826,504.3753494268782
-0.1807646484375,-0.0199931640625,1.3059619140625005,1.318564410908983,-0.615234375,-0.82275390625,0.9033203125,42.31823529411765,504.1610881061437
-0.1797880859375,-0.0068095703124999,1.2732470703125005,1.28589588542474,-0.546875,-0.5927734375,1.154296875,42.31823529411765,504.1610881061437
-0.1924833984375,0.0078388671875,1.2180712890625005,1.2332108383205256,-0.50927734375,-0.46044921875,1.4599609375,41.89470588235295,504.1610881061437
-0.1880888671875,0.0307880859375,1.1585009765625005,1.174074035524097,-0.40771484375,-0.4091796875,1.62744140625,42.31823529411765,504.1610881061437
-0.1768583984375,0.0649677734375,1.0940478515625005,1.1101533255329312,-0.267578125,-0.43017578125,1.958984375,42.13,504.1610881061437
-0.1465849609375,0.0752216796875,1.0090869140625005,1.022448948358908,-0.181640625,-0.52001953125,2.060546875,42.08294117647059,504.1371419103919
-0.1153349609375,0.0718037109375,0.9343798828125,0.9442053227574774,-0.0908203125,-0.5478515625,2.01953125,42.27117647058824,504.1371419103919
-0.0894560546875,0.0683857421875,0.8767626953125001,0.8839636979799725,-0.04052734375,-0.47265625,1.8603515625,42.31823529411765,504.1371419103919
-0.0889677734375,0.0503193359375,0.8132861328125001,0.8196838622937069,0.05859375,-0.44140625,1.625,42.224117647058826,504.1371419103919
-0.0909208984375,0.0449482421875,0.7395556640625001,0.7464780870831733,-0.02685546875,-0.3505859375,1.22705078125,42.31823529411765,504.51699989954295
-0.0987333984375,0.0464130859375,0.6980517578125001,0.7065258063923646,0.0419921875,-0.2333984375,0.8369140625,42.41235294117647,504.51699989954295
-0.1128935546875,0.0195576171875,0.6467822265625001,0.656852117053129,0.04052734375,-0.1806640625,0.63330078125,42.224117647058826,504.51699989954295
-0.1060576171875,0.0063740234375,0.6106494140625001,0.6198238082174213,0.08203125,-0.26025390625,0.48876953125,42.08294117647059,504.51699989954295
-0.1138701171875,-0.0282939453125,0.5877001953125001,0.5992983151152624,0.11669921875,-0.41650390625,0.412109375,42.27117647058824,504.51699989954295
-0.1241240234375,0.0141865234375,0.5945361328125001,0.6075205707309,0.07763671875,-0.49365234375,0.03369140625,42.31823529411765,504.5592948625491
-0.1255888671875,-0.0097392578124999,0.5984423828125001,0.6115559682077191,0.08349609375,-0.46533203125,-0.2265625,42.224117647058826,504.5592948625491
-0.1475615234375,-0.0282939453125,0.6038134765625001,0.622226377630389,0.06591796875,-0.466796875,-0.54443359375,42.224117647058826,504.5592948625491
-0.1705107421875,-0.0234111328125,0.6228564453125001,0.6461982248569087,-0.013671875,-0.4345703125,-0.9111328125,42.31823529411765,504.5592948625491
-0.1773466796875,-0.0199931640625,0.6560595703125001,0.6799012657761662,-0.01904296875,-0.30859375,-1.1708984375,42.224117647058826,504.755213542015
-0.1714873046875,-0.0263408203125,0.6790087890625001,0.7008242790513479,-0.0419921875,-0.22021484375,-1.302734375,42.31823529411765,504.755213542015
-0.1631865234375,-0.0282939453125,0.6990283203125001,0.7183808052640881,-0.01513671875,-0.20947265625,-1.40771484375,42.224117647058826,504.755213542015
-0.1641630859375,-0.0278056640625,0.7297900390625001,0.7485427007548233,-0.0068359375,-0.2099609375,-1.513671875,42.27117647058824,504.755213542015
-0.1749052734375,-0.0297587890625,0.7712939453125001,0.7914365358501179,-0.04443359375,-0.22509765625,-1.64501953125,42.224117647058826,504.755213542015
-0.2061552734375,-0.0278056640625,0.8118212890625001,0.8380494956117724,-0.05615234375,-0.1259765625,-1.640625,42.31823529411765,504.24660477416575
-0.2271513671875,-0.0356181640625,0.8377001953125001,0.8686817682286962,-0.087890625,-0.27099609375,-1.5947265625,42.27117647058824,504.24660477416575
-0.2251982421875,-0.0331767578125,0.8621142578125001,0.8916590935255957,-0.1162109375,-0.21826171875,-1.5703125,42.45941176470589,504.24660477416575
-0.2227568359375,-0.0317119140625,0.9011767578125,0.9288411071178122,-0.0927734375,-0.13427734375,-1.6240234375,42.41235294117647,504.24660477416575
-0.2315458984375,-0.0361064453125,0.9177783203125,0.9472244843288036,-0.0966796875,-0.06494140625,-1.42236328125,42.224117647058826,503.9762159788794
-0.2540068359375,-0.0405009765625,0.9065478515625,0.9423315812271608,-0.07275390625,0.05224609375,-1.42919921875,41.98882352941177,503.9762159788794
-0.2676787109375,-0.0429423828125,0.9192431640625,0.958386109668965,-0.04541015625,0.18896484375,-1.39697265625,41.98882352941177,503.9762159788794
-0.2632841796875,-0.0478251953125,0.9368212890625,0.9742894519705748,0.025390625,0.32080078125,-1.36328125,42.08294117647059,503.9762159788794
-0.2144560546875,-0.0395244140625,0.9627001953125,0.9870892790187916,0.0712890625,0.380859375,-1.490234375,42.31823529411765,503.9762159788794
-0.1807646484375,-0.0336650390625,0.9929736328125,1.0098543600146836,0.1181640625,0.37158203125,-1.77490234375,42.224117647058826,503.84560914000673
-0.1675810546875,-0.0488017578125,1.0173876953125005,1.0322512988749617,0.111328125,0.34033203125,-2.04443359375,42.08294117647059,503.84560914000673
-0.1792998046875,-0.0707744140625,1.0325244140625005,1.050363795683179,0.12158203125,0.306640625,-2.2041015625,42.224117647058826,503.84560914000673
-0.2168974609375,-0.0893291015625,1.0667041015625005,1.092191300659989,0.09033203125,0.43994140625,-2.2041015625,42.13,503.84560914000673
-0.2608427734375,-0.0878642578125,1.1335986328125005,1.166535443340612,0.06396484375,0.7041015625,-2.18408203125,42.224117647058826,503.7812407600993
-0.2901396484375,-0.0776103515625,1.1687548828125005,1.2067279554079915,-0.01611328125,1.0400390625,-2.21142578125,42.45941176470589,503.7812407600993
-0.3423857421875,-0.0522197265625,1.1824267578125005,1.2321071113691895,-0.09375,1.3955078125,-2.26318359375,42.224117647058826,503.7812407600993
-0.3921904296875,-0.0053447265624999,1.2668994140625005,1.3262262343176598,-0.083984375,1.775390625,-2.17333984375,42.31823529411765,503.7812407600993
-0.3887724609375,0.0176044921875,1.3709033203125005,1.4250718782476963,-0.0380859375,1.9296875,-2.10302734375,41.98882352941177,503.7812407600993
-0.3262724609375,0.0766865234375,1.4368212890625005,1.4753948482851522,-0.0322265625,1.80615234375,-2.16015625,42.41235294117647,503.0906237055379
-0.2540068359375,0.1157490234375,1.4280322265625005,1.455057850819261,-0.01513671875,1.43408203125,-2.13525390625,41.98882352941177,503.0906237055379
-0.1915068359375,0.0903583984375,1.3787158203125005,1.3948823683590503,0.0068359375,1.2841796875,-1.92919921875,42.224117647058826,503.0906237055379
-0.2540068359375,0.0439716796875,1.3377001953125005,1.362312296742792,0.0263671875,1.271484375,-1.796875,42.13,503.0906237055379
-0.0943388671875,0.0205341796875,1.3132861328125005,1.3168302628035518,0.06591796875,1.2529296875,-1.71826171875,42.224117647058826,503.6304270121101
-0.0264677734375,0.0210224609375,1.3015673828125005,1.3020061977179638,0.12744140625,1.26220703125,-1.615234375,41.84764705882353,503.6304270121101
0.0965791015625,0.0200458984375,1.2893603515625005,1.293127788381396,0.14306640625,1.11279296875,-1.6416015625,42.13,503.6304270121101
0.1439423828125,0.0366474609375,1.2253955078125005,1.2343648555147548,0.10400390625,0.8173828125,-1.845703125,42.41235294117647,503.6304270121101
0.0667939453125,0.0654560546875,1.1751025390625005,1.1788180112030853,0.22314453125,0.615234375,-1.67529296875,42.41235294117647,503.6304270121101
-0.0181669921875,0.0986591796875,1.1687548828125005,1.1730522790736193,0.35693359375,0.22412109375,-0.91748046875,42.224117647058826,504.01944039761423
-0.0718779296875,0.1299091796875,1.1741259765625005,1.1834756611701338,0.4921875,-0.17919921875,-0.33203125,42.31823529411765,504.01944039761423
-0.0914091796875,0.1338154296875,1.2014697265625005,1.2123496654017607,0.67822265625,-0.42138671875,-0.1826171875,41.94176470588236,504.01944039761423
-0.1031279296875,0.2119404296875,1.2424853515625005,1.2646438093254329,0.73291015625,-0.6298828125,-0.421875,42.224117647058826,504.01944039761423
-0.1060576171875,0.0342060546875,1.2507861328125005,1.25574050757982,0.7236328125,-0.7548828125,-0.68115234375,42.13,504.1481814696383
-0.1197294921875,-0.0077861328124999,1.2502978515625005,1.256041596757629,0.658203125,-0.6591796875,-0.7978515625,42.27117647058824,504.1481814696383
-0.1153349609375,-0.0492900390625,1.2239306640625005,1.2303405754496235,0.52734375,-0.47314453125,-0.94873046875,42.31823529411765,504.1481814696383
-0.1421904296875,-0.0937236328125,1.2141650390625005,1.2260501538370814,0.3935546875,-0.33251953125,-0.98095703125,42.27117647058824,504.1481814696383
-0.1490263671875,-0.1205791015625,1.1809619140625005,1.1964193329752273,0.19970703125,-0.283203125,-0.96240234375,42.08294117647059,504.1481814696383
-0.1226591796875,-0.1381572265625,1.1062548828125005,1.1215759267029366,0.06787109375,-0.298828125,-0.841796875,42.224117647058826,504.4277521797866
-0.0904326171875,-0.1220439453125,1.0339892578125005,1.0450868710831969,-0.01416015625,-0.2080078125,-0.642578125,42.224117647058826,504.4277521797866
-0.0645537109375,-0.1156962890625,0.9465869140625,0.955813579508579,-0.11181640625,-0.142578125,-0.44580078125,42.224117647058826,504.4277521797866
-0.0752958984375,-0.0824931640625,0.8870166015625001,0.8940207189355511,-0.1142578125,-0.16943359375,-0.412109375,42.31823529411765,504.4277521797866
-0.1216826171875,-0.0859111328125,0.8225634765625001,0.835941418426742,-0.0791015625,-0.15234375,-0.3251953125,42.31823529411765,504.1794347015374
-0.1543974609375,-0.0761455078125,0.7625048828125001,0.7816971348398782,-0.1181640625,-0.1123046875,-0.21728515625,42.45941176470589,504.1794347015374
-0.1724638671875,-0.0629619140625,0.7097705078125001,0.7331317493248369,-0.09619140625,-0.111328125,-0.09130859375,42.13,504.1794347015374
-0.1846708984375,-0.0507548828125,0.6702197265625001,0.697046541295871,-0.06787109375,-0.06298828125,0.07177734375,42.31823529411765,504.1794347015374
-0.1866240234375,-0.0341533203125,0.6321337890625001,0.6599909868224582,-0.03857421875,-0.00537109375,0.28662109375,42.13,504.1794347015374
-0.1695341796875,-0.0229228515625,0.6013720703125001,0.6252324864864369,-0.001953125,-0.076171875,0.529296875,42.08294117647059,504.471910042332
-0.1465849609375,-0.0116923828124999,0.5774462890625001,0.5958758925656708,0.04638671875,-0.201171875,0.7841796875,42.224117647058826,504.471910042332
-0.2588896484375,-0.0019267578124999,0.5671923828125001,0.623485975451158,0.1083984375,-0.33349609375,0.8779296875,42.08294117647059,504.471910042332
-0.1143583984375,0.0132099609375,0.5735400390625001,0.5849790789156262,0.150390625,-0.44140625,1.04833984375,42.224117647058826,504.471910042332
-0.1329130859375,0.0146748046875,0.6047900390625001,0.6193966658412571,0.26416015625,-0.36181640625,1.0849609375,42.27117647058824,504.342230833394
-0.1138701171875,0.0068623046875,0.6086962890625001,0.6192936840727328,0.25244140625,-0.357421875,1.154296875,42.41235294117647,504.342230833394
-0.1041044921875,0.0151630859375,0.6277392578125001,0.6364937079561381,0.2529296875,-0.4267578125,1.04736328125,42.224117647058826,504.342230833394
-0.1241240234375,0.0302998046875,0.6785205078125001,0.6904454582952564,0.30126953125,-0.50146484375,1.02490234375,41.94176470588236,504.342230833394
-0.1446318359375,0.0180927734375,0.7166064453125001,0.7312800516086363,0.3369140625,-0.5126953125,1.17529296875,42.27117647058824,504.342230833394
-0.1539091796875,0.0141865234375,0.7581103515625001,0.77370575685175,0.30615234375,-0.5771484375,1.25927734375,42.224117647058826,504.0819443227511
-0.1626982421875,0.0219990234375,0.8035205078125001,0.8201218699183458,0.2900390625,-0.61083984375,1.197265625,42.31823529411765,504.0819443227511
-0.1783232421875,0.0112568359375,0.8323291015625001,0.8512917410426487,0.236328125,-0.60205078125,1.07421875,42.41235294117647,504.0819443227511
-0.1924833984375,0.0058857421875,0.8669970703125001,0.8881263539416029,0.1552734375,-0.52490234375,0.9697265625,42.27117647058824,504.0819443227511
-0.2090849609375,-0.0019267578124999,0.8816455078125001,0.9061010069147176,0.0478515625,-0.34326171875,0.912109375,42.27117647058824,503.5310703216408
-0.2154326171875,0.0102802734375,0.9099658203125,0.93517628857195,-0.0166015625,-0.13818359375,0.97314453125,41.98882352941177,503.5310703216408
-0.2081083984375,0.0229755859375,0.9412158203125,0.9642220716494334,-0.0625,0.05224609375,1.126953125,42.224117647058826,503.5310703216408
-0.1919951171875,0.0449482421875,0.9763720703125,0.9960847801195968,-0.07421875,0.11474609375,1.3642578125,42.27117647058824,503.5310703216408
-0.1851591796875,0.0752216796875,1.0105517578125005,1.0301247876522004,-0.046875,-0.0263671875,1.712890625,42.27117647058824,503.5310703216408
-0.1675810546875,0.0991474609375,1.0129931640625005,1.0315370954734897,0.03662109375,-0.17236328125,1.9638671875,42.27117647058824,503.89800515169225
-0.1685576171875,0.1318623046875,0.9939501953125,1.0167282471099068,0.12939453125,-0.134765625,2.0390625,41.98882352941177,503.89800515169225
-0.2227568359375,0.1587177734375,1.0354541015625005,1.0709701844610091,0.1298828125,0.1669921875,2.01611328125,41.94176470588236,503.89800515169225
-0.3042998046875,0.1797138671875,1.0935595703125005,1.1492467006758806,0.3798828125,0.6025390625,2.02099609375,41.98882352941177,503.89800515169225
-0.3726591796875,0.1382099609375,1.1130908203125005,1.1819255610112087,0.46484375,1.14208984375,2.0439453125,42.13,503.8557144894533
-0.4180693359375,0.0761982421875,1.1326220703125005,1.209719345932213,0.47119140625,1.771484375,2.03173828125,42.27117647058824,503.8557144894533
-0.4556669921875,0.0361591796875,1.1946337890625005,1.2790972535404423,0.46826171875,2.31884765625,2.037109375,42.41235294117647,503.8557144894533
-0.4449248046875,0.0073505859375,1.2698291015625005,1.345540062619787,0.51611328125,2.7255859375,2.1572265625,42.31823529411765,503.8557144894533
-0.3526396484375,-0.0292705078125,1.3333056640625005,1.379462024884654,0.51220703125,2.87451171875,2.126953125,42.224117647058826,503.8557144894533
-0.2100615234375,-0.0839580078125,1.3181689453125005,1.337439403894994,0.3828125,2.4013671875,1.86572265625,42.31823529411765,503.1843556051956
-0.1622099609375,-0.1083720703125,1.2781298828125005,1.2929317748394378,0.1875,2.03759765625,1.60595703125,42.13,503.1843556051956
-0.1573271484375,-0.0590556640625,1.3020556640625005,1.3128550397551806,0.04541015625,1.87744140625,1.4716796875,42.31823529411765,503.1843556051956
-0.0914091796875,0.0361591796875,1.3118212890625005,1.315499227990809,0.0478515625,1.58935546875,1.029296875,42.224117647058826,503.1843556051956
-0.0611357421875,0.0683857421875,1.3235400390625005,1.3267148991810247,0.080078125,1.4873046875,0.751953125,42.08294117647059,503.1300943981675
0.0174775390625,0.0552021484375,1.3733447265625005,1.3745648327892088,0.17236328125,1.3037109375,0.81884765625,42.224117647058826,503.1300943981675
0.0604462890625,0.0390888671875,1.3709033203125005,1.3727919023083095,0.279296875,0.8955078125,1.1142578125,41.98882352941177,503.1300943981675
0.0829072265625,0.0132099609375,1.2903369140625005,1.293065142626849,0.3623046875,0.92919921875,1.2900390625,42.224117647058826,503.1300943981675
0.0389619140625,-0.0810283203125,1.2268603515625005,1.2301503736032195,0.3701171875,0.76953125,1.3759765625,41.94176470588236,503.1300943981675
0.0321259765625,-0.1357158203125,1.2063525390625005,1.2143876278831771,0.26904296875,0.52294921875,1.2685546875,42.27117647058824,503.7894773906459
0.0243134765625,-0.1762431640625,1.2009814453125005,1.2140878180783377,0.0859375,0.18701171875,0.66552734375,42.13,503.7894773906459
0.0521455078125,-0.1728251953125,1.2302783203125005,1.2434518275955746,-0.1875,-0.26416015625,-0.111328125,42.31823529411765,503.7894773906459
0.0218720703125,-0.1449931640625,1.2459033203125005,1.2545024865062335,-0.42431640625,-0.66064453125,-0.48388671875,42.224117647058826,503.7894773906459
-0.0611357421875,-0.0937236328125,1.2488330078125005,1.2538363448721708,-0.55126953125,-0.8134765625,-0.11474609375,42.27117647058824,504.2318364256907
-0.1377958984375,-0.0395244140625,1.2473681640625005,1.2555784426509695,-0.54541015625,-0.7822265625,0.4130859375,42.45941176470589,504.2318364256907
-0.1993193359375,-0.0024150390624999,1.2214892578125005,1.2376469759360187,-0.49267578125,-0.6396484375,0.8037109375,42.224117647058826,504.2318364256907
-0.2178740234375,0.0293232421875,1.1907275390625005,1.2108513595413224,-0.38232421875,-0.48583984375,1.07958984375,42.224117647058826,504.2318364256907
-0.2037138671875,0.0552021484375,1.1414111328125005,1.1607609534201766,-0.29150390625,-0.37890625,1.3720703125,42.41235294117647,504.2318364256907
-0.1670927734375,0.0830341796875,1.0535205078125005,1.0699159454428746,-0.173828125,-0.341796875,1.5556640625,42.31823529411765,504.26588629989567
-0.1128935546875,0.0991474609375,0.9846728515625,0.996070177399443,-0.09423828125,-0.29541015625,1.58447265625,42.224117647058826,504.26588629989567
-0.0962919921875,0.1035419921875,0.9221728515625,0.9329500844442358,-0.0380859375,-0.20556640625,1.4736328125,42.45941176470589,504.26588629989567
-0.0928740234375,0.0947529296875,0.8752978515625001,0.885296577912601,0.0458984375,-0.13916015625,1.3134765625,42.27117647058824,504.26588629989567
-0.1104521484375,0.0761982421875,0.8352587890625001,0.8459687310492501,0.13916015625,-0.0263671875,1.18798828125,42.27117647058824,504.2750627075116
-0.1075224609375,0.0571552734375,0.7835009765625001,0.7929070469873268,0.228515625,0.001953125,0.96923828125,42.08294117647059,504.2750627075116
-0.1216826171875,0.0356708984375,0.7376025390625001,0.7484227267743712,0.33056640625,-0.0166015625,0.7685546875,42.224117647058826,504.2750627075116
-0.1084990234375,0.0273701171875,0.6775439453125001,0.6867218936595634,0.3203125,-0.05224609375,0.349609375,42.41235294117647,504.2750627075116
-0.1202177734375,0.0185810546875,0.6472705078125001,0.6586020641688133,0.3564453125,-0.1005859375,0.13232421875,42.27117647058824,504.2750627075116
-0.1324248046875,-0.0004619140624999,0.6360400390625001,0.6496795160321359,0.341796875,-0.16455078125,0.1142578125,42.13,504.4157819726868
-0.1377958984375,-0.0053447265624999,0.6272509765625001,0.6422305375228087,0.359375,-0.2197265625,-0.05322265625,42.08294117647059,504.4157819726868
-0.1460966796875,-0.0072978515624999,0.6243212890625001,0.6412289532061087,0.33056640625,-0.1357421875,-0.4248046875,42.224117647058826,504.4157819726868
-0.1485380859375,-0.0180400390625,0.6296923828125001,0.647226006087083,0.2958984375,-0.03759765625,-0.91650390625,42.27117647058824,504.4157819726868
-0.1460966796875,-0.0195048828125,0.6365283203125001,0.6533704790003096,0.26953125,0.0341796875,-1.25048828125,42.13,503.8970719779377
-0.1358427734375,-0.0209697265625,0.6394580078125001,0.6540638594837888,0.2470703125,0.12109375,-1.71728515625,42.41235294117647,503.8970719779377
-0.1299833984375,-0.0243876953125,0.6580126953125001,0.6711714764085541,0.21484375,0.2744140625,-1.9736328125,42.224117647058826,503.8970719779377
-0.1568388671875,-0.0195048828125,0.6829150390625001,0.700964921584471,0.21044921875,0.25244140625,-2.12255859375,42.08294117647059,503.8970719779377
-0.1895537109375,-0.0234111328125,0.7048876953125001,0.7303049729207036,0.1923828125,0.24365234375,-1.86181640625,42.27117647058824,503.8970719779377
-0.2071318359375,-0.0116923828124999,0.7351611328125001,0.7638731573192187,0.15283203125,0.279296875,-2.0126953125,42.224117647058826,504.0488259370368
-0.2315458984375,-0.0126689453124999,0.7683642578125001,0.8025943171629826,0.10498046875,0.25830078125,-2.107421875,42.08294117647059,504.0488259370368
-0.2476591796875,-0.0258525390625,0.8084033203125001,0.8458837694102767,0.11474609375,0.2568359375,-2.0380859375,42.08294117647059,504.0488259370368
-0.2442412109375,-0.0282939453125,0.8377001953125001,0.8730383346040218,0.080078125,0.20263671875,-1.990234375,42.45941176470589,504.0488259370368
-0.2530302734375,-0.0380595703125,0.8572314453125001,0.8946052766448374,0.06884765625,0.19970703125,-1.97802734375,42.13,503.5963725284518
-0.2520537109375,-0.0478251953125,0.8669970703125001,0.9041583060695187,0.04736328125,0.3212890625,-2.05517578125,42.31823529411765,503.5963725284518
-0.2481474609375,-0.0663798828125,0.8918994140625001,0.9281530132564136,0.02880859375,0.43603515625,-2.1171875,42.31823529411765,503.5963725284518
-0.2139677734375,-0.0595439453125,0.9158251953125,0.9423711996142274,0.05908203125,0.48046875,-2.10791015625,41.94176470588236,503.5963725284518
-0.1832060546875,-0.0414775390625,0.9470751953125,0.9655238320709908,0.09423828125,0.42041015625,-2.15673828125,42.224117647058826,503.5963725284518
-0.1709990234375,-0.0302470703125,0.9827197265625,0.9979446939856652,0.115234375,0.45458984375,-2.27392578125,42.224117647058826,503.94029683555846
-0.1675810546875,-0.0302470703125,1.0081103515625005,1.0223916940586577,0.14111328125,0.38330078125,-2.4384765625,42.224117647058826,503.94029683555846
-0.1739287109375,-0.0619853515625,1.0276416015625005,1.0440980038093397,0.1494140625,0.349609375,-2.5546875,42.31823529411765,503.94029683555846
-0.1919951171875,-0.0815166015625,1.0725634765625005,1.0926570791469656,0.1455078125,0.40869140625,-2.52294921875,42.31823529411765,503.94029683555846
-0.2339873046875,-0.0854228515625,1.1252978515625005,1.1525373647110833,0.1162109375,0.60888671875,-2.421875,42.224117647058826,503.8207290531024
-0.2974638671875,-0.0600322265625,1.1511767578125005,1.1905026452032326,0.03759765625,1.01318359375,-2.26171875,42.506470588235295,503.8207290531024
-0.3707060546875,-0.0278056640625,1.2053759765625005,1.2613989768546388,-0.01025390625,1.470703125,-2.0419921875,42.27117647058824,503.8207290531024
-0.4112333984375,-0.0029033203124999,1.3030322265625005,1.3663873245605431,0.01123046875,1.87939453125,-1.88330078125,42.224117647058826,503.8207290531024
-0.3897490234375,0.0224873046875,1.4255908203125005,1.4780795537121338,0.01171875,1.99609375,-1.7841796875,42.08294117647059,503.8207290531024
-0.3243193359375,0.0669208984375,1.5061572265625005,1.5421319753630252,-0.00048828125,1.8212890625,-1.8720703125,42.27117647058824,502.8919096359094
-0.2623076171875,0.0893818359375,1.4890673828125005,1.5146339720164117,0.013671875,1.6240234375,-1.99267578125,42.08294117647059,502.8919096359094
-0.2417998046875,0.0654560546875,1.4070361328125005,1.4291614043494605,-0.03759765625,1.33349609375,-1.99072265625,42.31823529411765,502.8919096359094
-0.2095732421875,0.0498310546875,1.3396533203125005,1.35686222457424,-0.08154296875,1.11279296875,-1.84130859375,42.224117647058826,502.8919096359094
-0.1338896484375,0.0405537109375,1.2986376953125005,1.3061511800385444,-0.046875,0.9853515625,-1.6044921875,42.31823529411765,503.2588241249608
-0.0250029296875,0.0469013671875,1.2898486328125005,1.2909432134316718,-0.01171875,0.83837890625,-1.35107421875,42.83588235294118,503.2588241249608
0.0829072265625,0.0639912109375,1.2771533203125005,1.2814402392927955,0.07080078125,0.7529296875,-1.1064453125,42.224117647058826,503.2588241249608
0.1156220703125,0.0918232421875,1.2268603515625005,1.23571286842261,0.19091796875,0.4853515625,-0.99658203125,42.224117647058826,503.2588241249608
0.0853486328125,0.0913349609375,1.1882861328125005,1.1948432523335035,0.32177734375,0.16259765625,-0.568359375,42.31823529411765,503.2588241249608
0.0218720703125,0.0893818359375,1.1863330078125005,1.18989642636692,0.4521484375,-0.26025390625,-0.13916015625,42.224117647058826,503.8639537502607
-0.0479521484375,0.1025654296875,1.1960986328125005,1.2014453859092746,0.54833984375,-0.57861328125,0.17431640625,42.31823529411765,503.8639537502607
-0.0762724609375,0.2168232421875,1.2454150390625005,1.2664471667516222,0.63720703125,-0.81103515625,0.1748046875,42.224117647058826,503.8639537502607
-0.0826201171875,0.0678974609375,1.2722705078125005,1.2767569831472678,0.68017578125,-1.01611328125,-0.17724609375,42.224117647058826,503.8639537502607
-0.1158232421875,0.0239521484375,1.2649462890625005,1.2704636331113877,0.60595703125,-0.98779296875,-0.58837890625,42.41235294117647,504.3394371221841
-0.1470732421875,-0.0053447265624999,1.2327197265625005,1.2414737326765704,0.4970703125,-0.76953125,-0.74072265625,42.31823529411765,504.3394371221841
-0.1641630859375,-0.0317119140625,1.2097705078125005,1.2212697678444944,0.3876953125,-0.52978515625,-0.60498046875,42.224117647058826,504.3394371221841
-0.1475615234375,-0.0624736328125,1.1780322265625005,1.188880685693812,0.29052734375,-0.3564453125,-0.3359375,42.31823529411765,504.3394371221841
-0.1192412109375,-0.0805400390625,1.1379931640625005,1.1470543168180882,0.166015625,-0.28466796875,-0.24658203125,42.224117647058826,504.3394371221841
-0.0909208984375,-0.0829814453125,1.0627978515625005,1.0699027074106786,0.0263671875,-0.19970703125,-0.34765625,41.98882352941177,504.3081808669601
-0.0918974609375,-0.0932353515625,0.9988330078125,1.0073754769714756,-0.06201171875,-0.09033203125,-0.474609375,42.224117647058826,504.3081808669601
-0.0918974609375,-0.0893291015625,0.9304736328125,0.9392582249158185,-0.19482421875,0.02099609375,-0.5771484375,42.224117647058826,504.3081808669601
-0.1109404296875,-0.0907939453125,0.8611376953125001,0.8729888027533804,-0.287109375,0.10791015625,-0.52978515625,41.98882352941177,504.3081808669601
-0.1299833984375,-0.0780986328125,0.8059619140625001,0.8201034612997511,-0.31396484375,0.11962890625,-0.3935546875,42.27117647058824,503.8740605390632
-0.1504912109375,-0.0644267578125,0.7542041015625001,0.7717656629478689,-0.34423828125,0.10546875,-0.16015625,42.224117647058826,503.8740605390632
-0.1534208984375,-0.0502666015625,0.7078173828125001,0.7259959715601391,-0.31005859375,0.06982421875,0.056640625,42.31823529411765,503.8740605390632
-0.1578154296875,-0.0380595703125,0.6550830078125001,0.6748985018982443,-0.2412109375,0.0,0.22021484375,42.506470588235295,503.8740605390632
-0.1622099609375,-0.0312236328125,0.6292041015625001,0.6505265468037627,-0.20849609375,-0.03125,0.349609375,42.224117647058826,503.8740605390632
-0.1670927734375,-0.0263408203125,0.6135791015625001,0.6364692825455255,-0.1220703125,-0.03369140625,0.556640625,41.98882352941177,504.2419446732208
-0.1744169921875,-0.0195048828125,0.6033251953125001,0.628333525220587,-0.04150390625,-0.02783203125,0.7783203125,42.41235294117647,504.2419446732208
-0.1670927734375,-0.0087626953124999,0.5823291015625001,0.6058910482015425,0.0693359375,-0.005859375,0.93994140625,42.13,504.2419446732208
-0.1602568359375,0.0019794921875,0.5872119140625001,0.608690400672595,0.1064453125,0.06884765625,1.107421875,42.31823529411765,504.2419446732208
-0.1465849609375,0.0185810546875,0.5960009765625001,0.6140436225788866,0.11572265625,0.1650390625,1.16259765625,42.08294117647059,503.91728560770537
-0.1417021484375,0.0219990234375,0.6140673828125001,0.6305887776817793,0.150390625,0.1953125,1.19189453125,42.224117647058826,503.91728560770537
-0.1504912109375,0.0234638671875,0.6487353515625001,0.6663750550551456,0.1484375,0.17236328125,1.25439453125,42.31823529411765,503.91728560770537
-0.1749052734375,0.0210224609375,0.6760791015625001,0.6986535265134447,0.13232421875,0.11279296875,1.283203125,42.08294117647059,503.91728560770537
-0.1968779296875,0.0205341796875,0.7175830078125001,0.744384272291341,0.15771484375,0.01123046875,1.39208984375,42.224117647058826,503.91728560770537
-0.2115263671875,0.0195576171875,0.7605517578125001,0.7896612442796452,0.15478515625,-0.09228515625,1.52294921875,41.98882352941177,504.0580012030672
-0.2139677734375,0.0239521484375,0.7878955078125001,0.8167834748057106,0.076171875,-0.212890625,1.6328125,42.31823529411765,504.0580012030672
-0.2149443359375,0.0293232421875,0.8010791015625001,0.8299329171952284,0.0478515625,-0.1259765625,1.7705078125,42.41235294117647,504.0580012030672
-0.2110380859375,0.0283466796875,0.8210986328125001,0.8482591424629776,0.052734375,-0.2138671875,1.9658203125,41.84764705882353,504.0580012030672
-0.1954130859375,0.0249287109375,0.8430712890625001,0.8657811000629014,0.0517578125,-0.07568359375,2.07861328125,42.506470588235295,503.5724240283176
-0.1709990234375,0.0122333984375,0.8645556640625001,0.8813891412517287,0.01123046875,0.052734375,2.11962890625,42.88294117647059,503.5724240283176
-0.1695341796875,0.0249287109375,0.9070361328125,0.923080616706241,0.0478515625,0.07861328125,2.16259765625,42.45941176470589,503.5724240283176
-0.1646513671875,0.0376240234375,0.9475634765625,0.9624978867361476,0.06884765625,0.0439453125,2.3046875,42.45941176470589,503.5724240283176
-0.1529326171875,0.0683857421875,0.9675830078125,0.9819785497361122,0.16748046875,-0.013671875,2.4853515625,42.31823529411765,503.5724240283176
-0.1622099609375,0.0830341796875,1.0872119140625005,1.1023776542107369,0.134765625,-0.05517578125,2.6728515625,42.224117647058826,503.7664651406097
-0.2002958984375,0.1025654296875,0.9846728515625,1.0100587799242635,0.21826171875,0.08154296875,2.7529296875,42.08294117647059,503.7664651406097
-0.2662138671875,0.1015888671875,1.0300830078125005,1.068766169002093,0.30029296875,0.33349609375,2.74462890625,42.41235294117647,503.7664651406097
-0.3536162109375,0.0947529296875,0.9666064453125,1.0336104500448058,0.3642578125,0.685546875,2.68994140625,42.08294117647059,503.7664651406097
-0.4170927734375,0.0815693359375,1.1555712890625005,1.2312452811380188,0.51416015625,1.26611328125,2.49365234375,42.45941176470589,503.5613845936731
-0.4620146484375,0.0317646484375,1.2170947265625005,1.3022235221679237,0.43359375,1.70703125,2.51904296875,42.41235294117647,503.5613845936731
-0.4585966796875,0.0156513671875,1.2922900390625005,1.371338552282184,0.4658203125,2.09033203125,2.6025390625,41.98882352941177,503.5613845936731
-0.3892607421875,0.0097919921875,1.3752978515625005,1.429357893962108,0.49755859375,2.27197265625,2.6298828125,41.94176470588236,503.5613845936731
-0.2862333984375,-0.0180400390625,1.4075244140625005,1.4364469978291723,0.4755859375,2.05859375,2.44775390625,42.224117647058826,503.5613845936731
-0.2144560546875,-0.0346416015625,1.3967822265625005,1.4135742033553946,0.375,1.66455078125,2.166015625,42.224117647058826,502.9442961650124
-0.1641630859375,-0.0185283203125,1.3855517578125005,1.395366077778672,0.2431640625,1.38037109375,1.9677734375,42.45941176470589,502.9442961650124
-0.1275419921875,0.0429951171875,1.3357470703125005,1.3425109964993027,0.17626953125,1.09619140625,1.76904296875,42.41235294117647,502.9442961650124
-0.0928740234375,0.0962177734375,1.3372119140625005,1.3438821180689309,0.18505859375,1.09619140625,1.39453125,42.31823529411765,502.9442961650124
-0.0489287109375,0.0576435546875,1.3831103515625005,1.3851754555832845,0.203125,1.0546875,1.35009765625,42.27117647058824,503.6680440097235
0.0047822265625,0.0083271484375,1.4563525390625005,1.456384196950031,0.12841796875,0.9833984375,1.09130859375,41.84764705882353,503.6680440097235
0.0438447265625,-0.0473369140625,1.2712939453125005,1.2729302568752632,0.1279296875,1.07470703125,0.84814453125,42.08294117647059,503.6680440097235
0.1048798828125,-0.0741923828125,1.2590869140625005,1.2656240186760008,0.06396484375,0.92431640625,0.32568359375,42.08294117647059,503.6680440097235
0.1268525390625,-0.1313212890625,1.2615283203125005,1.2746727229285637,-0.02734375,0.51708984375,-0.578125,42.45941176470589,503.6680440097235
0.0707001953125,-0.1713603515625,1.2429736328125005,1.2567204699422834,-0.2392578125,0.1767578125,-1.14111328125,42.31823529411765,503.9687560543993
-0.0391630859375,-0.1479228515625,1.2752001953125005,1.284348260963345,-0.365234375,-0.20458984375,-1.24951171875,42.08294117647059,503.9687560543993
-0.1436552734375,-0.0780986328125,1.3079150390625005,1.3180963483142825,-0.46533203125,-0.57470703125,-0.572265625,42.27117647058824,503.9687560543993
-0.2100615234375,-0.0229228515625,1.3069384765625005,1.3239106776033451,-0.458984375,-0.796875,0.2392578125,42.41235294117647,503.9687560543993
-0.2315458984375,0.0405537109375,1.2922900390625005,1.313495965587329,-0.4248046875,-0.587890625,0.8203125,42.224117647058826,504.1223743103595
-0.2369169921875,0.0395771484375,1.2556689453125005,1.2784367454386716,-0.30078125,-0.2431640625,1.08154296875,42.31823529411765,504.1223743103595
-0.2237333984375,0.0454365234375,1.2083056640625005,1.229684385947874,-0.1943359375,0.0908203125,1.265625,41.98882352941177,504.1223743103595
-0.1944365234375,0.0498310546875,1.1511767578125005,1.1685446604154377,-0.13134765625,0.24755859375,1.52734375,42.08294117647059,504.1223743103595
-0.1382841796875,0.0781513671875,1.0598681640625005,1.0717045655115665,-0.0400390625,0.23974609375,1.47314453125,42.224117647058826,504.1223743103595
-0.1021513671875,0.0893818359375,0.9841845703125,0.9935005198061216,0.0068359375,0.2060546875,1.25390625,42.27117647058824,504.2180053711508
-0.1016630859375,0.0825458984375,0.9016650390625,0.911125156638082,0.0947265625,-0.02490234375,1.33544921875,42.506470588235295,504.2180053711508
-0.0821318359375,0.0649677734375,0.8552783203125001,0.8616655123982055,0.1025390625,-0.21533203125,1.29833984375,42.13,504.2180053711508
-0.0655302734375,0.0542255859375,0.7839892578125001,0.7885897458580433,0.03515625,-0.30517578125,1.02490234375,42.08294117647059,504.2180053711508
-0.0528349609375,0.0337177734375,0.7253955078125001,0.7280982516785799,0.05859375,-0.39111328125,0.78125,42.41235294117647,504.7808962538266
-0.0230498046875,0.0205341796875,0.6648486328125001,0.665564910872126,0.11328125,-0.48388671875,0.591796875,42.08294117647059,504.7808962538266
-0.0220732421875,0.0342060546875,0.6614306640625001,0.6626822810066013,0.04931640625,-0.576171875,-0.05517578125,42.41235294117647,504.7808962538266
-0.0367216796875,0.0107685546875,0.6233447265625001,0.6245182876925278,0.0791015625,-0.67529296875,-0.513671875,42.13,504.7808962538266
-0.0582060546875,-0.0048564453124999,0.5945361328125001,0.5973983119184387,0.08154296875,-0.8583984375,-0.7978515625,42.08294117647059,504.7808962538266
-0.0923857421875,-0.0146220703124999,0.5916064453125001,0.5989550203771992,0.0703125,-0.97998046875,-1.0703125,42.08294117647059,504.7468514935478
-0.1016630859375,-0.0204814453125,0.5901416015625001,0.5991844311555308,0.13671875,-1.08349609375,-1.294921875,42.224117647058826,504.7468514935478
-0.1070341796875,-0.0214580078125,0.5945361328125001,0.6044749580754359,0.134765625,-1.169921875,-1.5634765625,42.224117647058826,504.7468514935478
-0.1163115234375,-0.0160869140625,0.6101611328125001,0.6213563931299328,0.2802734375,-1.15966796875,-1.72802734375,42.08294117647059,504.7468514935478
-0.1509794921875,-0.0287822265625,0.5935595703125001,0.6131363528095933,0.28369140625,-1.13623046875,-1.787109375,42.224117647058826,504.8553882123583
-0.1812529296875,-0.0253642578125,0.6130908203125001,0.6398252292979193,0.330078125,-1.11279296875,-1.76513671875,42.31823529411765,504.8553882123583
-0.2002958984375,-0.0248759765625,0.6418994140625001,0.6728834363503119,0.39990234375,-1.076171875,-1.6650390625,41.98882352941177,504.8553882123583
-0.2164091796875,-0.0190166015625,0.6663134765625001,0.7008339412705472,0.41162109375,-1.00048828125,-1.6376953125,42.27117647058824,504.8553882123583
-0.2295927734375,-0.0292705078125,0.6912158203125001,0.7289368384795814,0.39697265625,-0.85986328125,-1.64990234375,42.13,504.8553882123583
-0.2364287109375,-0.0317119140625,0.7356494140625001,0.7733590636047237,0.31396484375,-0.68408203125,-1.6298828125,42.27117647058824,504.7698570989485
-0.2496123046875,-0.0234111328125,0.7913134765625001,0.8300791540452033,0.2958984375,-0.564453125,-1.5126953125,42.506470588235295,504.7698570989485
-0.3052763671875,-0.0361064453125,0.8215869140625001,0.8772128550785401,0.26513671875,-0.52978515625,-1.19140625,42.08294117647059,504.7698570989485
-0.2837919921875,-0.0405009765625,0.8318408203125001,0.8798507681819908,0.19140625,-0.38330078125,-1.11279296875,41.98882352941177,504.7698570989485
-0.2745146484375,-0.0654033203125,0.8518603515625001,0.8973861738843818,0.1416015625,-0.09716796875,-1.11474609375,42.08294117647059,504.3044593221728
-0.2457060546875,-0.0746806640625,0.8796923828125001,0.916410036650214,0.09521484375,0.26123046875,-1.17041015625,42.41235294117647,504.3044593221728
-0.2159208984375,-0.0624736328125,0.9104541015625,0.9377907337091936,0.068359375,0.5380859375,-1.234375,42.31823529411765,504.3044593221728
-0.2247099609375,-0.0483134765625,0.9363330078125,0.9641308314130876,0.068359375,0.71240234375,-1.251953125,42.45941176470589,504.3044593221728
-0.2393583984375,-0.0429423828125,0.9695361328125,0.9995683088079564,0.12060546875,0.9404296875,-1.26171875,42.45941176470589,504.3044593221728
-0.2310576171875,-0.0351298828125,1.0222705078125005,1.0486461377748038,0.12158203125,1.0859375,-1.27587890625,42.224117647058826,503.9255302146864
-0.1919951171875,-0.0380595703125,1.0584033203125005,1.076349499170571,0.138671875,1.072265625,-1.2451171875,42.08294117647059,503.9255302146864
-0.1797880859375,-0.0375712890625,1.1057666015625005,1.1209170953901848,0.18115234375,1.01318359375,-1.248046875,42.27117647058824,503.9255302146864
-0.2012724609375,-0.0341533203125,1.1511767578125005,1.169138563450845,0.169921875,1.02978515625,-1.310546875,42.27117647058824,503.9255302146864
-0.2623076171875,-0.0473369140625,1.1565478515625005,1.1868651997684403,0.1328125,1.06396484375,-1.42333984375,42.27117647058824,503.6882573265353
-0.3292021484375,-0.0566142578125,1.1643603515625005,1.211327477197754,0.1083984375,1.32763671875,-1.52880859375,42.224117647058826,503.6882573265353
-0.3399443359375,-0.0131572265624999,1.2537158203125005,1.299052971302037,0.08642578125,1.74560546875,-1.74658203125,42.31823529411765,503.6882573265353
-0.3174833984375,0.0405537109375,1.3328173828125005,1.3707087537771798,0.05810546875,2.00634765625,-2.04833984375,41.98882352941177,503.6882573265353
-0.3223662109375,0.0976826171875,1.3860400390625005,1.426383138409585,0.080078125,2.43115234375,-2.14794921875,42.27117647058824,503.6882573265353
-0.3482451171875,0.1284443359375,1.3782275390625005,1.427334494261817,0.125,2.6083984375,-2.11083984375,42.41235294117647,502.985645896953
-0.3599638671875,0.1318623046875,1.3440478515625005,1.3976502711221617,0.1298828125,2.626953125,-1.77685546875,41.98882352941177,502.985645896953
-0.3843779296875,0.1343037109375,1.3206103515625005,1.3819535376619805,0.00146484375,2.3447265625,-1.263671875,42.27117647058824,502.985645896953
-0.0499052734375,0.1338154296875,1.3059619140625005,1.3137479311196312,0.10009765625,1.68408203125,-0.90966796875,42.224117647058826,502.985645896953
0.1161103515625,0.1103779296875,1.2673876953125005,1.2774726890746422,0.06396484375,1.22900390625,-0.75341796875,42.224117647058826,503.7204428765582
0.2054658203125,0.1050068359375,1.2180712890625005,1.239733965070198,0.0986328125,0.9140625,-0.70263671875,42.08294117647059,503.7204428765582
0.1707978515625,0.1211201171875,1.3801806640625005,1.395973013470491,0.15087890625,0.4794921875,-0.8525390625,42.224117647058826,503.7204428765582
0.0638642578125,0.1054951171875,1.3274462890625005,1.3331622232579758,0.13037109375,0.0947265625,-0.86767578125,42.224117647058826,503.7204428765582
-0.0635771484375,0.1318623046875,1.3259814453125005,1.3340376735737152,0.1611328125,-0.2412109375,-0.47802734375,42.41235294117647,503.7204428765582
-0.1504912109375,0.1538349609375,1.3416064453125005,1.3587570253287082,0.18994140625,-0.4384765625,0.0078125,42.224117647058826,503.9255302146864
-0.1773466796875,0.1318623046875,1.3660205078125005,1.383781608476569,0.2197265625,-0.537109375,0.41015625,42.08294117647059,503.9255302146864
-0.1700224609375,0.1240498046875,1.3582080078125005,1.3744180527598768,0.24169921875,-0.51953125,0.5537109375,42.31823529411765,503.9255302146864
-0.1436552734375,0.0805927734375,1.3240283203125005,1.3342349964328968,0.24755859375,-0.27587890625,0.47607421875,42.13,503.9255302146864
-0.1255888671875,0.0259052734375,1.2844775390625005,1.2908625779335956,0.25390625,0.00732421875,0.23486328125,42.08294117647059,503.7958537594698
-0.1153349609375,-0.0185283203125,1.2429736328125005,1.248450601239457,0.17578125,0.12548828125,-0.02685546875,42.41235294117647,503.7958537594698
-0.1133818359375,-0.0610087890625,1.1785205078125005,1.1855328339603524,0.00244140625,0.34228515625,-0.126953125,42.224117647058826,503.7958537594698
-0.0982451171875,-0.0883525390625,1.0964892578125005,1.1044215529897017,-0.16162109375,0.40576171875,-0.02587890625,42.224117647058826,503.7958537594698
-0.0845732421875,-0.1069072265625,1.0164111328125005,1.0255112770177524,-0.23388671875,0.5166015625,0.2236328125,42.27117647058824,503.7958537594698
-0.0601591796875,-0.0976298828125,0.9529345703125,0.959809885454054,-0.3193359375,0.611328125,0.17138671875,42.08294117647059,503.8179321521776
-0.0728544921875,-0.1073955078125,0.8894580078125001,0.898875475131002,-0.326171875,0.58056640625,0.0107421875,42.31823529411765,503.8179321521776
-0.0943388671875,-0.0990947265625,0.8044970703125001,0.8160484806897891,-0.443359375,0.62255859375,-0.212890625,42.27117647058824,503.8179321521776
-0.0987333984375,-0.0805400390625,0.7512744140625001,0.7620027736722222,-0.4794921875,0.39990234375,-0.55810546875,42.27117647058824,503.8179321521776
-0.1373076171875,-0.0746806640625,0.6902392578125001,0.7077152085041525,-0.49609375,0.35888671875,-0.75927734375,42.08294117647059,503.7204428765582
-0.1797880859375,-0.0688212890625,0.6448291015625001,0.6729522240807256,-0.59130859375,0.36962890625,-0.64794921875,42.31823529411765,503.7204428765582
-0.1915068359375,-0.0458720703125,0.6018603515625001,0.6332574498799708,-0.677734375,0.14599609375,-0.513671875,42.224117647058826,503.7204428765582
-0.2105498046875,-0.0273173828125,0.5779345703125001,0.6156994617668292,-0.66259765625,0.0322265625,-0.28173828125,41.98882352941177,503.7204428765582
-0.2154326171875,-0.0160869140625,0.5730517578125001,0.6124200506876848,-0.59130859375,0.01904296875,0.056640625,41.98882352941177,503.7204428765582
-0.2002958984375,-0.0043681640624999,0.5637744140625001,0.5983135613870686,-0.46630859375,-0.056640625,0.43505859375,42.08294117647059,503.9457473955734
-0.1861357421875,0.0053974609375,0.5667041015625001,0.5965141958344526,-0.26708984375,0.00537109375,0.79296875,42.27117647058824,503.9457473955734
-0.1485380859375,0.0210224609375,0.5486376953125001,0.5687783641768176,-0.14453125,0.05126953125,1.02001953125,42.27117647058824,503.9457473955734
-0.1343779296875,0.0200458984375,0.5730517578125001,0.5889376734114243,-0.0439453125,0.0576171875,1.19921875,42.31823529411765,503.9457473955734
-0.1084990234375,0.0200458984375,0.5813525390625001,0.5917302179249201,-0.00390625,0.0029296875,1.32568359375,43.02411764705882,503.7848145839756
-0.1055693359375,0.0224873046875,0.6121142578125001,0.6215580650106158,0.0087890625,-0.0595703125,1.3232421875,42.31823529411765,503.7848145839756
-0.1436552734375,0.0205341796875,0.6443408203125001,0.6604798125929565,-0.1240234375,-0.162109375,1.42822265625,42.224117647058826,503.7848145839756
-0.1832060546875,0.0171162109375,0.6985400390625001,0.7223680566888706,-0.025390625,-0.2099609375,1.541015625,42.224117647058826,503.7848145839756
-0.1890654296875,0.0068623046875,0.7400439453125001,0.7638441391555176,-0.05859375,-0.23046875,1.447265625,42.31823529411765,503.7848145839756
-0.1876005859375,-0.0009501953124999,0.7742236328125001,0.7966285937126599,-0.11376953125,-0.24169921875,1.39111328125,42.224117647058826,503.4491247942255
-0.1841826171875,-0.0053447265624999,0.8152392578125001,0.8358031168012842,-0.189453125,-0.25927734375,1.32373046875,42.13,503.4491247942255
-0.1876005859375,-0.0043681640624999,0.8596728515625001,0.8799150370433332,-0.240234375,-0.24609375,1.2734375,42.27117647058824,503.4491247942255
-0.1890654296875,0.0132099609375,0.8933642578125001,0.9132469200100094,-0.267578125,-0.279296875,1.30908203125,42.31823529411765,503.4491247942255
-0.1866240234375,0.0302998046875,0.9109423828125,0.9303561839920323,-0.26416015625,-0.2998046875,1.4453125,42.224117647058826,503.4261141703989
-0.1959013671875,0.0469013671875,0.9397509765625,0.9610978003617326,-0.26220703125,-0.3427734375,1.6806640625,42.13,503.4261141703989
-0.2032255859375,0.0630146484375,0.9558642578125,0.9792588851068872,-0.244140625,-0.3974609375,1.84716796875,42.31823529411765,503.4261141703989
-0.2173857421875,0.0766865234375,0.9602587890625,0.9875395312366586,-0.1884765625,-0.349609375,1.84228515625,42.08294117647059,503.4261141703989
-0.2647490234375,0.0849873046875,0.9910205078125,1.029289334577067,-0.1533203125,-0.15673828125,1.8046875,42.224117647058826,503.4261141703989
-0.3345732421875,0.0976826171875,1.0383837890625005,1.0953182375347588,-0.09619140625,0.11181640625,2.00439453125,42.41235294117647,503.4270464897475
-0.3907255859375,0.1089130859375,1.0833056640625005,1.156753952050533,-0.00927734375,0.44677734375,2.2900390625,42.13,503.4270464897475
-0.4122099609375,0.0879169921875,1.1204150390625005,1.1970698848307966,0.06201171875,0.96435546875,2.3056640625,42.31823529411765,503.4270464897475
-0.4239287109375,0.0517841796875,1.1550830078125005,1.2315087933751063,0.02392578125,1.4873046875,2.166015625,42.224117647058826,503.4270464897475
-0.4576201171875,0.0205341796875,1.2229541015625005,1.305930533649735,0.05419921875,1.97705078125,2.14306640625,42.41235294117647,503.2219678213972
-0.4522490234375,0.0053974609375,1.3088916015625005,1.384830508194267,0.064453125,2.22900390625,2.447265625,41.98882352941177,503.2219678213972
-0.3428740234375,-0.0146220703124999,1.3816455078125005,1.4236294146114377,0.1064453125,2.18310546875,2.6865234375,42.27117647058824,503.2219678213972
-0.2144560546875,-0.0458720703125,1.3635791015625005,1.3811023178768755,0.17041015625,1.837890625,2.64111328125,42.45941176470589,503.2219678213972
-0.1558623046875,-0.0571025390625,1.3284228515625005,1.338753536145966,0.1435546875,1.54638671875,2.376953125,42.224117647058826,503.2219678213972
-0.0904326171875,-0.0019267578124999,1.3162158203125005,1.3193202250734872,0.154296875,1.16259765625,1.98681640625,42.224117647058826,502.626028759324
-0.0586943359375,0.0488544921875,1.2854541015625005,1.2877204796468438,0.20556640625,1.1220703125,1.20361328125,42.27117647058824,502.626028759324
-0.0206083984375,0.0425068359375,1.3328173828125005,1.3336542704594545,0.21826171875,0.9677734375,1.0537109375,42.41235294117647,502.626028759324
0.0374970703125,0.0078388671875,1.3367236328125005,1.3372724287295583,0.18310546875,0.73095703125,1.2021484375,42.224117647058826,502.626028759324
0.0570283203125,-0.0375712890625,1.3469775390625005,1.3487076487580074,0.2841796875,0.44287109375,1.4091796875,42.31823529411765,503.6974328625381
0.0580048828125,-0.0756572265625,1.3875048828125005,1.3907761797606943,0.36328125,-0.00634765625,1.36865234375,42.224117647058826,503.6974328625381
0.0365205078125,-0.1274150390625,1.3499072265625005,1.3563988572672283,0.27734375,-0.39599609375,0.81884765625,42.31823529411765,503.6974328625381
0.0160126953125,-0.1791728515625,1.3098681640625005,1.322162593773048,0.0400390625,-0.68994140625,0.02685546875,41.94176470588236,503.6974328625381
-0.0225615234375,-0.1669658203125,1.3430712890625005,1.3535978335519203,-0.173828125,-1.0341796875,-0.49755859375,42.27117647058824,503.6974328625381
-0.0831083984375,-0.1088603515625,1.3748095703125005,1.381614612204141,-0.494140625,-1.2705078125,-0.6416015625,42.13,503.9347083316011
-0.1363310546875,-0.0380595703125,1.3547900390625005,1.3621639906074263,-0.6904296875,-1.1796875,-0.443359375,42.224117647058826,503.9347083316011
-0.1851591796875,0.0068623046875,1.3108447265625005,1.32387496018502,-0.693359375,-0.80078125,-0.03369140625,42.08294117647059,503.9347083316011
-0.1968779296875,0.0434833984375,1.2610400390625005,1.2770566570267987,-0.583984375,-0.3779296875,0.32373046875,42.31823529411765,503.9347083316011
-0.1714873046875,0.0615498046875,1.2019580078125005,1.2156888280603089,-0.40625,-0.15478515625,0.69482421875,42.45941176470589,503.7286879942152
-0.1583037109375,0.0693623046875,1.1248095703125005,1.1380104409339733,-0.28955078125,-0.06298828125,1.03466796875,42.41235294117647,503.7286879942152
-0.1363310546875,0.0683857421875,1.0408251953125005,1.051940993309057,-0.12158203125,-0.12060546875,1.2421875,42.31823529411765,503.7286879942152
-0.1084990234375,0.0508076171875,0.9475634765625,0.9551073207584444,-0.01611328125,-0.24267578125,1.4189453125,42.27117647058824,503.7286879942152
-0.0660185546875,0.0630146484375,0.8772509765625001,0.8819855845537319,-0.0205078125,-0.20361328125,1.39697265625,42.27117647058824,503.7286879942152
-0.0513701171875,0.0522724609375,0.8308642578125001,0.8340903512345869,-0.0078125,-0.14013671875,1.03564453125,42.27117647058824,503.8050306944916
-0.0982451171875,0.0195576171875,0.7756884765625001,0.782129922783351,-0.00146484375,-0.0615234375,0.73193359375,42.27117647058824,503.8050306944916
-0.1299833984375,-0.0097392578124999,0.7224658203125001,0.7341303688936412,0.041015625,0.0185546875,0.54931640625,42.224117647058826,503.8050306944916
-0.1309599609375,-0.0278056640625,0.6663134765625001,0.6796302784393243,0.078125,0.04296875,0.34375,42.224117647058826,503.8050306944916
-0.1246123046875,0.0913349609375,0.6306689453125001,0.6493178113609438,0.1376953125,0.041015625,0.14990234375,41.84764705882353,504.1296924272499
-0.1241240234375,-0.0492900390625,0.5847705078125001,0.5998273317817262,0.119140625,-0.01025390625,-0.05322265625,42.27117647058824,504.1296924272499
-0.1236357421875,-0.0512431640625,0.5759814453125001,0.5913258695116144,0.09814453125,-0.08251953125,-0.26806640625,42.224117647058826,504.1296924272499
-0.1431669921875,-0.0566142578125,0.5740283203125001,0.5943151305161817,0.13037109375,-0.17529296875,-0.3349609375,42.45941176470589,504.1296924272499
